,Time,stabilizer.roll,stabilizer.pitch,stabilizer.yaw,gyro.x,gyro.y,gyro.z
0,77269.0,0.4274061322212219,-0.8131991624832153,4.201566219329834,-0.045084547251462936,0.039772145450115204,-0.020767707377672195
1,77279.0,0.42593497037887573,-0.8129128217697144,4.1972174644470215,0.002916562370955944,0.1122741550207138,-0.018669109791517258
2,77289.0,0.42701461911201477,-0.7508789896965027,4.192436695098877,-0.08070476353168488,0.0449519082903862,0.12668903172016144
3,77299.0,0.427737832069397,-0.8300159573554993,4.189671039581299,0.04377444088459015,0.06553564220666885,0.06952136754989624
4,77309.0,0.42995017766952515,-0.8892916440963745,4.186882972717285,0.02545398660004139,-0.061790239065885544,-0.031465109437704086
5,77319.0,0.4317014515399933,-0.805915892124176,4.182252883911133,-0.06334986537694931,0.020666087046265602,-0.01882311888039112
6,77329.0,0.4308170676231384,-0.8051269054412842,4.177870750427246,0.04980561509728432,-0.00114824331831187,-0.2122555673122406
7,77339.0,0.4302857220172882,-0.8046642541885376,4.171901702880859,-0.17766065895557404,0.49962836503982544,-0.6387082934379578
8,77349.0,0.42925816774368286,-0.8069023489952087,4.162779331207275,0.2601853907108307,0.4187171459197998,-0.6844810843467712
9,77359.0,0.36812716722488403,-0.8127478957176208,4.153408050537109,-0.23281528055667877,0.05069058761000633,1.0139329433441162
10,77369.0,0.25743427872657776,-0.8174393773078918,4.1465911865234375,-0.4034026265144348,-0.308898389339447,-1.268762469291687
11,77379.0,0.29845917224884033,-0.8140531778335571,4.1336989402771,-1.1588166952133179,-0.007060471922159195,-1.1175470352172852
12,77389.0,0.3225376009941101,-0.8074191808700562,4.123077392578125,-0.2716367244720459,0.021128451451659203,-13.560391426086426
13,77399.0,-0.021517980843782425,-1.167492389678955,4.0425496101379395,-1.2983993291854858,0.9707819819450378,-32.664066314697266
14,77409.0,-0.3865143954753876,-1.6677318811416626,3.7743828296661377,-4.232601165771484,4.22031307220459,-32.76896667480469
15,77419.0,-1.3192180395126343,-2.3598341941833496,3.412510871887207,-4.3592047691345215,3.6917428970336914,-34.98085403442383
16,77429.0,-1.7383031845092773,-2.748823642730713,3.0696377754211426,-11.721452713012695,2.6488611698150635,-62.758235931396484
17,77439.0,-1.8976490497589111,-3.0138800144195557,2.5929086208343506,-26.73961067199707,5.0701584815979,-80.5005874633789
18,77449.0,-2.0731122493743896,-3.538461685180664,1.9637808799743652,-20.238807678222656,11.135467529296875,-77.36487579345703
19,77459.0,-2.3343427181243896,-3.9130074977874756,1.243267297744751,-4.403482437133789,12.647965431213379,-58.53998565673828
20,77469.0,-2.672539472579956,-4.416463851928711,0.6334230303764343,5.18355655670166,9.819761276245117,-36.08657455444336
21,77479.0,-3.0296030044555664,-4.894807815551758,0.1799057573080063,9.336176872253418,4.9504780769348145,-16.880569458007812
22,77489.0,-3.4173269271850586,-5.350551128387451,-0.113732248544693,6.205151081085205,-1.590179443359375,-7.699425220489502
23,77499.0,-4.051729202270508,-5.984962463378906,-0.3241230249404907,-5.313754558563232,-9.059608459472656,-11.310938835144043
24,77509.0,-4.714818954467773,-6.240605354309082,-0.6455658078193665,-8.761873245239258,-12.991229057312012,-23.352140426635742
25,77519.0,-5.245454788208008,-6.287245750427246,-1.0110652446746826,-7.093811511993408,-12.208385467529297,-35.58163833618164
26,77529.0,-5.962926864624023,-6.372686862945557,-1.5933012962341309,-6.817633152008057,-8.296457290649414,-40.713104248046875
27,77539.0,-5.170857906341553,-6.795800685882568,-0.9562044739723206,-8.941981315612793,-3.94516921043396,-40.21044158935547
28,77549.0,-5.946723461151123,-6.996159076690674,-1.6535682678222656,-14.884361267089844,-2.355440855026245,-39.19820022583008
29,77559.0,-4.667450428009033,-8.606371879577637,0.31259122490882874,-17.74484634399414,-5.092401504516602,-35.472076416015625
30,77569.0,-5.217733383178711,-8.04733657836914,-0.6781300902366638,-17.1343936920166,-11.327149391174316,-28.24553680419922
31,77579.0,-5.3216047286987305,-7.725389003753662,-1.0166603326797485,-14.628515243530273,-14.604159355163574,-22.901334762573242
32,77589.0,-5.253201484680176,-8.042552947998047,-0.6712872982025146,-5.652321815490723,-10.996179580688477,-26.756603240966797
33,77599.0,-5.094170570373535,-8.138993263244629,-0.4790797829627991,0.6589819192886353,-5.806094646453857,-36.300819396972656
34,77609.0,-5.516470909118652,-7.635031700134277,-1.4287621974945068,2.5869789123535156,-5.784271717071533,-42.10224914550781
35,77619.0,-4.867940425872803,-7.185825824737549,-1.4399365186691284,2.6918482780456543,-10.431553840637207,-38.75484848022461
36,77629.0,-4.9943718910217285,-7.0193891525268555,-1.9613828659057617,0.22428414225578308,-14.481069564819336,-31.137989044189453
37,77639.0,-5.102664470672607,-6.4350266456604,-2.6317567825317383,-2.4529001712799072,-14.290013313293457,-30.327117919921875
38,77649.0,-4.811830997467041,-5.772720813751221,-2.961899518966675,-4.5053510665893555,-11.652384757995605,-37.59003829956055
39,77659.0,-5.019900798797607,-4.943357944488525,-3.85184645652771,-10.607291221618652,-10.561949729919434,-41.9556999206543
40,77669.0,-5.242567539215088,-4.315009593963623,-4.637845993041992,-10.138002395629883,-10.891195297241211,-30.45943832397461
41,77679.0,-5.621258735656738,-6.084593772888184,-3.872405767440796,0.24149185419082642,-8.275505065917969,-12.907645225524902
42,77689.0,-5.144503116607666,-5.640235424041748,-3.942760944366455,7.756550312042236,-1.082244634628296,-2.7339956760406494
43,77699.0,-4.920236587524414,-4.869124412536621,-4.3772053718566895,11.78456974029541,4.734591007232666,3.544656991958618
44,77709.0,-4.765900611877441,-4.467766284942627,-4.605355739593506,13.405106544494629,3.452195405960083,10.238792419433594
45,77719.0,-4.556271076202393,-4.144016265869141,-4.724471092224121,14.381757736206055,-1.689751386642456,14.528263092041016
46,77729.0,-4.175423622131348,-3.9308700561523438,-4.6603102684021,18.30881690979004,-5.53901481628418,12.621148109436035
47,77739.0,-4.0294108390808105,-3.2433290481567383,-4.885145664215088,18.329177856445312,-7.83612585067749,6.628259181976318
48,77749.0,-3.7224183082580566,-3.1894495487213135,-4.7485432624816895,13.975671768188477,-8.71912956237793,-1.3515522480010986
49,77759.0,-3.461379289627075,-2.5520551204681396,-4.990947246551514,12.5177583694458,-7.8401594161987305,-7.701989650726318
50,77769.0,-3.3840672969818115,-2.2351975440979004,-5.143028736114502,14.45997142791748,-6.424018859863281,-8.508058547973633
51,77779.0,-3.0077831745147705,-1.9908604621887207,-5.270119667053223,12.697829246520996,-6.427731990814209,-4.870239734649658
52,77789.0,-3.3250958919525146,-1.72416353225708,-5.4058027267456055,10.155984878540039,-8.110123634338379,-2.5356600284576416
53,77799.0,-2.523599624633789,-1.7054712772369385,-5.452637195587158,7.550556659698486,-9.9435396194458,-6.985198974609375
54,77809.0,-2.632828712463379,-1.5304019451141357,-5.49196720123291,6.061537742614746,-11.627140045166016,-14.31972885131836
55,77819.0,-2.7830214500427246,-1.3304117918014526,-5.586768627166748,6.910181999206543,-13.440473556518555,-18.749971389770508
56,77829.0,-2.806736469268799,-0.9739006161689758,-5.794634819030762,9.608724594116211,-13.581069946289062,-18.535327911376953
57,77839.0,-2.5072507858276367,-0.7901439070701599,-6.023531436920166,15.363597869873047,-11.260603904724121,-11.22243595123291
58,77849.0,-2.1068456172943115,-0.7151387333869934,-6.210055351257324,16.9436092376709,-7.390607833862305,-1.5749249458312988
59,77859.0,-1.3933407068252563,-0.5694985389709473,-6.416487693786621,16.19612693786621,-3.425377368927002,3.8292016983032227
60,77869.0,-1.2489064931869507,-0.5670075416564941,-6.374694347381592,17.298019409179688,-2.3878135681152344,4.0422515869140625
61,77879.0,-0.8893399238586426,-0.6407130360603333,-6.384975433349609,17.572481155395508,-4.074275016784668,0.4702862799167633
62,77889.0,-1.5378016233444214,-0.4105393588542938,-6.07103157043457,12.427550315856934,-5.761393070220947,-4.290892124176025
63,77899.0,-0.9141805171966553,-0.12916594743728638,-6.257155418395996,11.806158065795898,-5.021040439605713,-7.875466346740723
64,77909.0,-0.7892447710037231,-0.1474563330411911,-6.326627731323242,15.620494842529297,-3.689342975616455,-6.133162498474121
65,77919.0,-1.000863790512085,-0.4792407751083374,-6.283511161804199,16.66270637512207,-3.142385721206665,0.6593300104141235
66,77929.0,-0.4218536913394928,-0.563835859298706,-6.473719120025635,17.182172775268555,-1.5583281517028809,7.314995765686035
67,77939.0,-0.5548556447029114,-0.4406619369983673,-6.279453754425049,14.5018892288208,-1.9093621969223022,9.248161315917969
68,77949.0,-0.2116563320159912,-0.3890056312084198,-6.2491135597229,9.609519958496094,-4.87337589263916,4.154956817626953
69,77959.0,0.032151054590940475,-0.09806152433156967,-6.187981605529785,6.091731548309326,-7.542690277099609,-2.4970486164093018
70,77969.0,-0.055829666554927826,-0.25475698709487915,-6.172305107116699,6.050894737243652,-7.5277228355407715,-3.598318576812744
71,77979.0,-0.05338193476200104,0.2219255268573761,-6.0878520011901855,7.581857681274414,-4.969158172607422,2.091392755508423
72,77989.0,-0.6717444062232971,0.2709978520870209,-5.798664569854736,8.35152816772461,-2.5734102725982666,10.598939895629883
73,77999.0,-0.41775327920913696,0.2826388478279114,-5.790151119232178,7.52736234664917,-1.9183670282363892,16.020795822143555
74,78009.0,-0.2010878324508667,0.22330407798290253,-5.715498924255371,7.988887786865234,-1.7064622640609741,13.241827011108398
75,78019.0,-0.06730665266513824,0.24452662467956543,-5.587569713592529,8.697195053100586,0.3499591648578644,3.7786545753479004
76,78029.0,-0.05815695598721504,0.30861496925354004,-5.460781574249268,7.240564823150635,2.813373327255249,-6.962255477905273
77,78039.0,0.2843153774738312,0.19717086851596832,-5.630553245544434,5.1361188888549805,1.6871957778930664,-11.514436721801758
78,78049.0,0.2854882776737213,0.1906099170446396,-5.699922561645508,3.209057092666626,-2.7787599563598633,-7.965299606323242
79,78059.0,0.40028464794158936,0.3239514231681824,-5.788837909698486,2.534332752227783,-7.231513977050781,0.23356622457504272
80,78069.0,0.4912817180156708,0.3914526402950287,-5.834654808044434,2.2983856201171875,-9.29928207397461,8.090483665466309
81,78079.0,0.5697131156921387,0.5738911628723145,-5.769367218017578,0.9625068306922913,-8.340996742248535,11.540165901184082
82,78089.0,0.627545177936554,0.8686426877975464,-5.612630844116211,-0.061717335134744644,-5.016843318939209,7.614994049072266
83,78099.0,0.6723491549491882,0.7482799291610718,-5.591504096984863,0.8959787487983704,-2.4120559692382812,2.650162696838379
84,78109.0,0.7245837450027466,0.9467641711235046,-5.513975620269775,1.9076361656188965,-1.1640151739120483,3.309105396270752
85,78119.0,0.9256872534751892,0.6928485631942749,-5.656864643096924,2.416350841522217,1.0314981937408447,7.506104469299316
86,78129.0,0.8395023345947266,0.9236655235290527,-5.463408470153809,2.2338156700134277,3.979687452316284,9.134273529052734
87,78139.0,0.9135859608650208,0.8714554905891418,-5.401129722595215,1.6729376316070557,4.614296913146973,6.435033798217773
88,78149.0,0.9783040285110474,0.816742479801178,-5.343786239624023,-1.7701830863952637,1.1425867080688477,0.8801406621932983
89,78159.0,0.9990615248680115,0.8208391070365906,-5.311239719390869,-4.826755046844482,-3.260016441345215,-6.117726802825928
90,78169.0,0.9782275557518005,0.8989327549934387,-5.330615520477295,-5.479226589202881,-4.618759632110596,-12.95959186553955
91,78179.0,0.9523442387580872,1.0034775733947754,-5.420490264892578,-3.2674384117126465,-3.470684766769409,-14.003134727478027
92,78189.0,0.9606652855873108,0.9600141048431396,-5.609089374542236,-0.15159359574317932,-1.7965747117996216,-8.676021575927734
93,78199.0,1.0140836238861084,1.1724666357040405,-5.679850101470947,0.6590999960899353,0.6406630873680115,0.16424298286437988
94,78209.0,1.2183717489242554,1.2429293394088745,-5.780755519866943,1.5170196294784546,4.33204984664917,11.599061012268066
95,78219.0,1.2724573612213135,0.9794065952301025,-5.8150763511657715,1.9323692321777344,8.068082809448242,18.828144073486328
96,78229.0,1.2003604173660278,1.0959173440933228,-5.544147491455078,1.7130663394927979,9.98161506652832,18.815614700317383
97,78239.0,1.3522826433181763,0.7469826340675354,-5.496828079223633,1.044713020324707,8.955910682678223,12.628957748413086
98,78249.0,1.3461601734161377,0.7244529724121094,-5.298858165740967,-0.26925960183143616,6.8838701248168945,2.043052911758423
99,78259.0,1.528191089630127,0.8549427390098572,-5.22163200378418,-0.89417564868927,4.2173590660095215,-8.310395240783691
100,78269.0,1.3488911390304565,0.8088968396186829,-5.182866096496582,-1.1648799180984497,0.34366148710250854,-13.949615478515625
101,78279.0,1.4002602100372314,0.8328294157981873,-5.304640769958496,-1.8507705926895142,-2.9854378700256348,-12.176307678222656
102,78289.0,1.440291404724121,0.9121930599212646,-5.431196212768555,-2.8609139919281006,-3.4224050045013428,-5.491293907165527
103,78299.0,1.4645925760269165,1.0666332244873047,-5.488201141357422,-4.22637939453125,-1.26309072971344,2.9362802505493164
104,78309.0,1.7300457954406738,1.105705738067627,-5.596149921417236,-5.173200607299805,1.7854220867156982,8.033890724182129
105,78319.0,1.5350335836410522,0.7626541256904602,-5.596627235412598,-6.841864585876465,4.936599254608154,7.26255989074707
106,78329.0,1.41233491897583,1.0192151069641113,-5.383303165435791,-6.82440710067749,6.635732650756836,2.978163003921509
107,78339.0,1.2998207807540894,0.9941948056221008,-5.298983573913574,-6.494348049163818,6.2518463134765625,-1.9141162633895874
108,78349.0,1.268817663192749,1.0300778150558472,-5.269770622253418,-7.380505561828613,4.266114711761475,-3.2707788944244385
109,78359.0,1.2238023281097412,0.7555139064788818,-5.377006530761719,-6.104302406311035,1.331626534461975,-2.3606395721435547
110,78369.0,1.1881184577941895,0.7745492458343506,-5.395874977111816,-6.105280876159668,-1.662879228591919,-0.7723127603530884
111,78379.0,1.1579211950302124,0.7131751179695129,-5.433935165405273,-8.622983932495117,-4.135897636413574,-0.4902157783508301
112,78389.0,1.0974839925765991,0.8448324799537659,-5.408918857574463,-8.25198745727539,-4.70436429977417,-4.342957973480225
113,78399.0,1.0389312505722046,1.045979619026184,-5.395133018493652,-4.840002536773682,-4.950198650360107,-6.910428524017334
114,78409.0,1.0276918411254883,1.2288657426834106,-5.431229591369629,-2.9985387325286865,-5.7167863845825195,-3.529456615447998
115,78419.0,1.0488390922546387,1.3338027000427246,-5.4800872802734375,-0.6519559621810913,-3.3676223754882812,1.0916271209716797
116,78429.0,1.1018840074539185,1.4647321701049805,-5.479849338531494,5.077159404754639,1.5989283323287964,1.88121497631073
117,78439.0,1.2894887924194336,1.2437471151351929,-5.562504768371582,6.212532997131348,4.570098876953125,-2.0267488956451416
118,78449.0,1.4121559858322144,1.3444424867630005,-5.5452165603637695,0.5597503781318665,2.8449289798736572,-5.724735260009766
119,78459.0,1.387972116470337,1.3084067106246948,-5.567137241363525,-3.1688108444213867,-0.5790747404098511,-5.673913955688477
120,78469.0,1.3708823919296265,1.39934241771698,-5.598196506500244,-4.00233268737793,-3.8086347579956055,-1.4267511367797852
121,78479.0,1.3308048248291016,1.468785047531128,-5.612553119659424,-3.3664093017578125,-5.185405731201172,1.9659394025802612
122,78489.0,1.2945550680160522,1.5025815963745117,-5.601980686187744,-1.0706381797790527,-5.321070671081543,1.7381056547164917
123,78499.0,1.2877899408340454,1.8209372758865356,-5.51663064956665,1.2953988313674927,-6.149211406707764,-1.3197720050811768
124,78509.0,1.320029616355896,1.777451992034912,-5.546899795532227,3.0473599433898926,-5.410282135009766,-3.8382790088653564
125,78519.0,1.3812284469604492,1.8721611499786377,-5.578296184539795,4.986575603485107,-0.758854866027832,-4.438902378082275
126,78529.0,1.470468521118164,1.8924963474273682,-5.6332597732543945,7.536476135253906,4.039661407470703,-3.1917643547058105
127,78539.0,1.589939832687378,1.8366650342941284,-5.690192699432373,8.77163314819336,4.88822078704834,1.6650372743606567
128,78549.0,1.718867301940918,1.6978418827056885,-5.722149848937988,6.991103649139404,4.1432318687438965,6.6450042724609375
129,78559.0,1.817057490348816,1.5215060710906982,-5.704670429229736,7.718575954437256,4.652957916259766,8.644474029541016
130,78569.0,1.8498870134353638,1.6312048435211182,-5.5656418800354,12.12771987915039,6.711657524108887,5.8831634521484375
131,78579.0,1.8856275081634521,1.551876425743103,-5.469648838043213,15.865616798400879,9.03718376159668,-0.03827914968132973
132,78589.0,2.2570693492889404,1.3110183477401733,-5.555637836456299,16.353899002075195,8.474201202392578,-6.295478820800781
133,78599.0,2.4724299907684326,1.107261061668396,-5.64001989364624,17.574201583862305,5.933594703674316,-8.585400581359863
134,78609.0,2.5625200271606445,1.5566884279251099,-5.542690753936768,21.91592025756836,5.301810264587402,-6.6666083335876465
135,78619.0,2.990621566772461,1.4679985046386719,-5.682567596435547,27.3843936920166,7.592661380767822,-3.6851916313171387
136,78629.0,3.461925983428955,0.9017057418823242,-5.937492370605469,31.75545883178711,9.427729606628418,-2.564052104949951
137,78639.0,3.840235710144043,1.0541146993637085,-5.887677192687988,35.199501037597656,10.625234603881836,-3.4255118370056152
138,78649.0,4.263757228851318,1.2138112783432007,-5.825848579406738,39.19514846801758,11.129746437072754,-3.8746283054351807
139,78659.0,4.930058002471924,0.7235991358757019,-6.073820114135742,42.177913665771484,10.765237808227539,-1.641054391860962
140,78669.0,5.398288249969482,0.44452807307243347,-6.171875,44.65693283081055,10.674283027648926,1.9751849174499512
141,78679.0,5.96032190322876,0.4080733060836792,-6.134034156799316,44.180015563964844,10.881102561950684,5.726180076599121
142,78689.0,6.306214332580566,0.3633063733577728,-6.0230021476745605,41.78141403198242,10.454134941101074,9.60119342803955
143,78699.0,6.8871169090271,0.3264661729335785,-5.904019832611084,38.63239288330078,7.6003336906433105,10.906393051147461
144,78709.0,7.272529602050781,0.8723416924476624,-5.362475395202637,34.80961608886719,3.701935291290283,8.864189147949219
145,78719.0,7.838906764984131,0.8284734487533569,-5.282815933227539,31.533132553100586,-0.15649916231632233,7.973770618438721
146,78729.0,7.941353797912598,0.7099015116691589,-5.26417350769043,31.035511016845703,-1.416837453842163,9.985359191894531
147,78739.0,8.001116752624512,0.4385524392127991,-5.39072847366333,31.2403621673584,1.6678646802902222,12.093598365783691
148,78749.0,8.095650672912598,1.0018340349197388,-4.773006916046143,28.03082847595215,6.00124979019165,12.983589172363281
149,78759.0,8.739599227905273,0.9258169531822205,-4.718465805053711,24.808568954467773,9.810029983520508,12.40578842163086
150,78769.0,8.835556030273438,0.7932610511779785,-4.619950771331787,23.447473526000977,13.468045234680176,9.130980491638184
151,78779.0,9.120265007019043,0.6030531525611877,-4.582090854644775,25.49622344970703,15.776061058044434,4.461446285247803
152,78789.0,9.162345886230469,0.38367781043052673,-4.552023410797119,27.695476531982422,13.254985809326172,1.4690608978271484
153,78799.0,9.279842376708984,0.2001415342092514,-4.535050392150879,25.100936889648438,9.377297401428223,0.314188688993454
154,78809.0,9.837841033935547,0.07960899919271469,-4.543191432952881,21.036285400390625,6.828288555145264,0.3744112253189087
155,78819.0,9.951310157775879,0.013330444693565369,-4.510211944580078,17.702850341796875,4.531066417694092,-0.08360297977924347
156,78829.0,9.8501615524292,-0.2268500179052353,-4.686461448669434,16.825408935546875,2.4645228385925293,-2.8755877017974854
157,78839.0,10.176722526550293,0.02529265359044075,-4.38960075378418,18.858762741088867,1.2065529823303223,-5.321251392364502
158,78849.0,10.034087181091309,0.03650869056582451,-4.3890461921691895,19.84339714050293,2.0502166748046875,-4.766025543212891
159,78859.0,10.478614807128906,-0.10668777674436569,-4.560643196105957,14.814430236816406,3.334258556365967,-1.5478622913360596
160,78869.0,10.562253952026367,0.036186859011650085,-4.386756896972656,10.671915054321289,5.1575727462768555,2.7931625843048096
161,78879.0,10.38484001159668,-0.011681361123919487,-4.371307373046875,8.469326972961426,5.6182050704956055,3.2529311180114746
162,78889.0,10.414604187011719,-0.06558527797460556,-4.330048084259033,3.6022307872772217,4.823452949523926,-0.32186591625213623
163,78899.0,10.384624481201172,-0.11131751537322998,-4.305328845977783,-1.3306080102920532,3.758452892303467,-4.475218296051025
164,78909.0,10.28101921081543,-0.7086376547813416,-4.9354705810546875,-4.253385543823242,3.155827045440674,-8.591024398803711
165,78919.0,10.09787368774414,-0.07860271632671356,-4.2656073570251465,-7.091609477996826,2.4718987941741943,-13.512054443359375
166,78929.0,9.955439567565918,-0.4012410342693329,-4.673279762268066,-9.790740966796875,1.1858469247817993,-18.42267608642578
167,78939.0,9.788139343261719,-0.3894899785518646,-4.776487827301025,-8.994592666625977,0.04587838426232338,-20.413311004638672
168,78949.0,9.630232810974121,-0.09300394356250763,-4.6223554611206055,-6.710008144378662,-0.2389906644821167,-19.288372039794922
169,78959.0,9.389922142028809,-0.12463296204805374,-4.824975967407227,-8.06500244140625,-0.3270714282989502,-17.838306427001953
170,78969.0,9.434595108032227,-0.35673338174819946,-5.194180011749268,-18.4656925201416,-1.1224122047424316,-20.4442195892334
171,78979.0,9.188093185424805,-0.33625879883766174,-5.3454084396362305,-33.08613586425781,-2.3813514709472656,-26.812793731689453
172,78989.0,9.005910873413086,-0.169600248336792,-5.403869152069092,-46.0458869934082,-4.884415149688721,-33.33829116821289
173,78999.0,8.270862579345703,-0.0722295269370079,-5.640712261199951,-52.160072326660156,-8.468934059143066,-38.037784576416016
174,79009.0,7.676766872406006,0.06459537148475647,-5.914604663848877,-48.302642822265625,-11.05184555053711,-38.00419998168945
175,79019.0,7.0032782554626465,0.15956957638263702,-6.280096530914307,-39.4695930480957,-11.169110298156738,-31.6706600189209
176,79029.0,6.356036186218262,0.2614246606826782,-6.617927551269531,-34.4664192199707,-8.915518760681152,-22.678621292114258
177,79039.0,5.510429382324219,0.328601598739624,-6.899617671966553,-35.290199279785156,-6.047264575958252,-11.741325378417969
178,79049.0,5.4932355880737305,0.09529626369476318,-7.205040454864502,-35.72212219238281,-4.351405143737793,-2.3904948234558105
179,79059.0,5.395843505859375,-0.16558483242988586,-7.392062187194824,-36.0843620300293,-4.687151908874512,3.417325258255005
180,79069.0,4.854881286621094,0.4796968102455139,-7.133570194244385,-37.43939208984375,-6.125260353088379,1.8504459857940674
181,79079.0,4.0801825523376465,0.527118980884552,-7.115675926208496,-41.13485336303711,-7.468849182128906,-6.045507431030273
182,79089.0,3.7139437198638916,0.3989845812320709,-7.19242000579834,-44.46660614013672,-8.617575645446777,-15.19952392578125
183,79099.0,3.5433781147003174,0.7190765142440796,-7.268552780151367,-50.59280776977539,-10.539278030395508,-21.272050857543945
184,79109.0,3.2493820190429688,0.8283397555351257,-7.464885711669922,-55.88408279418945,-12.914787292480469,-20.580310821533203
185,79119.0,2.4717352390289307,0.8319016695022583,-7.671789169311523,-61.33332443237305,-14.313617706298828,-14.637656211853027
186,79129.0,1.6600106954574585,0.9391491413116455,-7.827827453613281,-59.589378356933594,-12.73147964477539,-8.534125328063965
187,79139.0,-0.26452550292015076,0.8032577037811279,-7.81325101852417,-53.65685272216797,-8.231561660766602,-8.261392593383789
188,79149.0,-0.6508116722106934,1.164891004562378,-7.959517955780029,-54.15664291381836,-3.849411725997925,-12.129317283630371
189,79159.0,-0.7116674780845642,1.0654983520507812,-8.044549942016602,-59.74208450317383,-3.8567054271698,-15.44536304473877
190,79169.0,-1.2017107009887695,1.2431522607803345,-8.252340316772461,-65.23854064941406,-7.436430931091309,-17.54099464416504
191,79179.0,-1.524135708808899,1.12386155128479,-8.346399307250977,-73.1760025024414,-9.613797187805176,-20.14826774597168
192,79189.0,-1.242706537246704,0.9537465572357178,-8.472575187683105,-75.7706069946289,-6.96552038192749,-21.984378814697266
193,79199.0,-1.8629893064498901,1.0460188388824463,-8.699467658996582,-66.48308563232422,-7.91460657119751,-16.725563049316406
194,79209.0,-2.602313995361328,1.5491312742233276,-9.181140899658203,-71.5531005859375,-13.1037015914917,-13.550116539001465
195,79219.0,-3.470221519470215,1.7278666496276855,-9.32913589477539,-64.99984741210938,-13.630685806274414,-6.6671223640441895
196,79229.0,-4.4219794273376465,1.900294303894043,-9.383871078491211,-57.48411178588867,-10.051397323608398,5.370370388031006
197,79239.0,-4.980931282043457,1.79978609085083,-9.166711807250977,-55.99211883544922,-4.425113201141357,16.71108627319336
198,79249.0,-5.530097484588623,1.8365758657455444,-9.010047912597656,-49.01628494262695,1.8979852199554443,24.948795318603516
199,79259.0,-6.01059103012085,1.9864784479141235,-8.96555233001709,-39.61449432373047,6.402080059051514,28.256568908691406
200,79269.0,-6.495817184448242,1.799755573272705,-8.56092643737793,-42.86801528930664,10.155172348022461,23.711261749267578
201,79279.0,-6.834046363830566,1.266499638557434,-7.846029758453369,-48.461727142333984,11.64987564086914,15.287982940673828
202,79289.0,-7.399328708648682,1.305132508277893,-7.863598823547363,-44.0206184387207,10.028097152709961,5.870202541351318
203,79299.0,-6.530007362365723,0.8627183437347412,-7.594637393951416,-38.39171600341797,8.1743745803833,-4.339393138885498
204,79309.0,-6.790936470031738,0.70820152759552,-7.539914608001709,-45.70724868774414,8.182528495788574,-14.715422630310059
205,79319.0,-7.293376445770264,0.6510846614837646,-7.657463073730469,-63.93572235107422,9.088199615478516,-27.394634246826172
206,79329.0,-8.138360023498535,0.5986294746398926,-7.875036716461182,-66.8467788696289,6.8859052658081055,-33.54654312133789
207,79339.0,-9.065666198730469,0.6016111969947815,-8.216602325439453,-59.34157943725586,1.006611704826355,-30.93264389038086
208,79349.0,-9.685925483703613,0.7083792090415955,-8.656454086303711,-49.77647399902344,-4.0506815910339355,-21.886812210083008
209,79359.0,-10.564169883728027,0.9540632963180542,-9.107291221618652,-43.031551361083984,-4.498915672302246,-6.94324254989624
210,79369.0,-11.029507637023926,1.0885976552963257,-9.30553913116455,-41.47882843017578,-2.8186912536621094,10.000433921813965
211,79379.0,-11.262451171875,1.072879672050476,-9.2061128616333,-46.3756103515625,-1.4524551630020142,28.378944396972656
212,79389.0,-11.718263626098633,1.001847505569458,-8.912322998046875,-49.0574951171875,-2.4997198581695557,44.837318420410156
213,79399.0,-12.210916519165039,1.4053797721862793,-9.211820602416992,-37.920955657958984,-1.621230959892273,46.98382568359375
214,79409.0,-12.630346298217773,0.7101948857307434,-7.799649715423584,-10.697717666625977,6.366476058959961,27.386144638061523
215,79419.0,-12.596436500549316,0.7540681958198547,-7.708446979522705,8.403558731079102,15.31581974029541,0.4017626941204071
216,79429.0,-12.093071937561035,0.6079590320587158,-7.656675815582275,10.565925598144531,18.6164493560791,-18.250335693359375
217,79439.0,-11.755303382873535,0.13458262383937836,-7.303982734680176,7.459056377410889,15.935961723327637,-20.903121948242188
218,79449.0,-11.64967155456543,0.24276748299598694,-7.919543266296387,13.168845176696777,12.726452827453613,-12.543012619018555
219,79459.0,-11.161225318908691,0.1127895638346672,-8.061288833618164,24.56822395324707,10.76856803894043,0.21113190054893494
220,79469.0,-10.688343048095703,-0.005566833540797234,-8.096878051757812,30.43758201599121,10.217336654663086,13.719832420349121
221,79479.0,-10.117915153503418,-0.36647576093673706,-7.629871368408203,34.064727783203125,10.995882034301758,25.201326370239258
222,79489.0,-9.55197525024414,-0.4893631637096405,-7.448930263519287,36.44680404663086,13.66157054901123,27.146711349487305
223,79499.0,-9.196857452392578,-0.4321382939815521,-7.543222904205322,40.73127746582031,16.62518882751465,21.8851261138916
224,79509.0,-8.269312858581543,-0.5946975350379944,-7.336159706115723,46.783287048339844,17.102304458618164,17.22658348083496
225,79519.0,-7.624603748321533,-0.8354585766792297,-7.087225914001465,48.819942474365234,15.144811630249023,19.201034545898438
226,79529.0,-7.332865238189697,-0.8191388845443726,-7.220860004425049,48.62059783935547,12.662712097167969,29.4683837890625
227,79539.0,-6.309917449951172,-1.1676461696624756,-6.661351203918457,47.14900207519531,12.313482284545898,38.781700134277344
228,79549.0,-5.608393669128418,-1.206754446029663,-6.426075458526611,44.12174606323242,15.031087875366211,37.47905349731445
229,79559.0,-5.1301116943359375,-1.45045804977417,-5.9607133865356445,41.34931945800781,18.341278076171875,25.299793243408203
230,79569.0,-4.696160793304443,-1.9291017055511475,-5.368677139282227,43.49745178222656,18.954315185546875,12.186114311218262
231,79579.0,-4.385246276855469,-1.9431908130645752,-5.426082611083984,46.96006393432617,16.93157386779785,4.938233375549316
232,79589.0,-4.068748950958252,-2.150207281112671,-5.381431579589844,48.80560302734375,15.221389770507812,7.261288642883301
233,79599.0,-3.7653610706329346,-2.320525884628296,-5.378185749053955,49.76496505737305,14.019381523132324,19.9732723236084
234,79609.0,-3.0202579498291016,-2.4714832305908203,-5.149789333343506,50.32670593261719,13.928194046020508,35.65797805786133
235,79619.0,-2.580491542816162,-2.6330039501190186,-4.868631362915039,40.36385726928711,15.57237434387207,40.99828338623047
236,79629.0,-2.0583300590515137,-3.0850741863250732,-4.293891906738281,32.79328155517578,17.04476547241211,34.02260208129883
237,79639.0,-1.744794487953186,-3.2436227798461914,-3.956005573272705,32.23036575317383,17.794677734375,20.315597534179688
238,79649.0,-1.117640495300293,-3.661438465118408,-3.4973859786987305,36.94599533081055,16.62020492553711,2.712266683578491
239,79659.0,-1.190725326538086,-3.241910457611084,-3.7682526111602783,45.17864227294922,14.876453399658203,-6.195667266845703
240,79669.0,-0.5747783184051514,-3.907139539718628,-3.61350417137146,58.407310485839844,13.640177726745605,-3.8782191276550293
241,79679.0,0.2518250048160553,-3.9369332790374756,-3.524564266204834,75.9947280883789,14.234299659729004,9.376766204833984
242,79689.0,0.9188439249992371,-3.7447919845581055,-3.5038623809814453,78.68949127197266,17.338319778442383,22.273651123046875
243,79699.0,1.850662112236023,-4.166008949279785,-3.256964683532715,75.38231658935547,17.21685791015625,23.507617950439453
244,79709.0,2.78377103805542,-4.280292987823486,-2.906547784805298,69.885498046875,14.288565635681152,14.59859561920166
245,79719.0,3.668958902359009,-4.204869270324707,-2.5741868019104004,62.406654357910156,2.0954668521881104,4.973243713378906
246,79729.0,4.360550880432129,-3.7127442359924316,-2.2674503326416016,65.71867370605469,-16.652732849121094,5.661803722381592
247,79739.0,4.846439361572266,-3.4369630813598633,-2.248873710632324,73.53809356689453,-32.547218322753906,13.767837524414062
248,79749.0,5.591800212860107,-2.9202206134796143,-2.019778251647949,71.16632843017578,-39.9068603515625,18.060260772705078
249,79759.0,6.313816547393799,-2.5984866619110107,-1.9428446292877197,58.02254104614258,-38.23655700683594,16.682432174682617
250,79769.0,6.742799282073975,-2.2958505153656006,-1.9787449836730957,45.6485481262207,-30.849655151367188,10.73904037475586
251,79779.0,7.109461784362793,-1.8028377294540405,-1.8333251476287842,38.67559814453125,-19.714847564697266,3.160100221633911
252,79789.0,7.773792266845703,-0.9188134074211121,-1.150023341178894,36.4224853515625,-7.678035736083984,-0.07117822021245956
253,79799.0,7.619786739349365,-0.9444828629493713,-1.4427241086959839,36.34617233276367,1.1816802024841309,1.2387919425964355
254,79809.0,7.8516740798950195,-1.3658509254455566,-1.9256447553634644,40.17369842529297,4.9844489097595215,2.764087200164795
255,79819.0,8.234769821166992,-1.5033279657363892,-2.000434637069702,41.6521110534668,4.596034526824951,3.9823241233825684
256,79829.0,8.582075119018555,-1.6285066604614258,-2.0592799186706543,43.322723388671875,2.264796733856201,6.836963176727295
257,79839.0,9.265955924987793,-1.9217725992202759,-2.2437236309051514,44.634586334228516,0.07249937206506729,9.3139066696167
258,79849.0,9.499732971191406,-1.994300127029419,-2.292663335800171,42.402740478515625,-0.689142644405365,9.688822746276855
259,79859.0,9.857111930847168,-1.9624632596969604,-2.2012181282043457,35.11147689819336,-0.12466505169868469,6.849194526672363
260,79869.0,9.969096183776855,-1.6460236310958862,-1.8189245462417603,24.25821876525879,-0.19968190789222717,1.4840340614318848
261,79879.0,10.226028442382812,-1.903071641921997,-2.1195859909057617,16.182220458984375,-0.6074257493019104,-3.429368019104004
262,79889.0,9.988019943237305,-1.3727121353149414,-1.5404242277145386,17.95004653930664,-0.9921503067016602,-2.222611427307129
263,79899.0,10.007701873779297,-2.039048433303833,-2.461425542831421,23.400590896606445,-1.1080021858215332,2.3763062953948975
264,79909.0,10.032584190368652,-1.328324556350708,-1.5821412801742554,26.01921844482422,-0.4965650737285614,6.288270950317383
265,79919.0,10.611771583557129,-1.6900376081466675,-1.969138264656067,34.0897216796875,1.2796610593795776,9.136822700500488
266,79929.0,10.609098434448242,-1.9533202648162842,-2.292491912841797,44.96285629272461,3.6444456577301025,9.729962348937988
267,79939.0,11.4068021774292,-1.8317819833755493,-1.96510910987854,48.73531723022461,5.563983917236328,6.720963001251221
268,79949.0,11.683927536010742,-1.6171222925186157,-1.583360195159912,49.6654052734375,5.839127063751221,4.367588996887207
269,79959.0,12.26195240020752,-1.7573732137680054,-1.6327488422393799,54.63693618774414,3.8179585933685303,3.3078057765960693
270,79969.0,12.964229583740234,-2.472792387008667,-2.459627866744995,48.01970291137695,1.4348499774932861,0.43545249104499817
271,79979.0,13.432302474975586,-2.4241905212402344,-2.362353563308716,18.288063049316406,-0.4555910527706146,-0.9986118078231812
272,79989.0,13.703672409057617,-1.9615654945373535,-1.7399201393127441,-8.803553581237793,-1.6511881351470947,2.1995766162872314
273,79999.0,13.240706443786621,-1.7106541395187378,-1.4735068082809448,-27.21014404296875,-4.063662528991699,4.185264587402344
274,80009.0,12.69680404663086,-2.2198004722595215,-2.2692978382110596,-38.401912689208984,-7.151114463806152,1.117699384689331
275,80019.0,11.838519096374512,-1.5293948650360107,-1.4461004734039307,-44.39458084106445,-7.660520076751709,-8.438129425048828
276,80029.0,11.059922218322754,-1.465334415435791,-1.56358802318573,-48.66996765136719,-5.605888366699219,-21.17623519897461
277,80039.0,10.024176597595215,-1.5290617942810059,-1.9529855251312256,-52.2353401184082,-3.365236282348633,-33.107791900634766
278,80049.0,9.393518447875977,-1.477445125579834,-2.180389642715454,-51.70512771606445,-2.653176784515381,-38.51970291137695
279,80059.0,8.638472557067871,-1.5343585014343262,-2.61331844329834,-52.57807922363281,-3.3754160404205322,-37.434844970703125
280,80069.0,8.051265716552734,-1.570656657218933,-3.015186309814453,-57.14461898803711,-5.602688789367676,-32.34644317626953
281,80079.0,7.204159736633301,-1.7805771827697754,-3.6471035480499268,-59.970672607421875,-7.858768463134766,-26.974510192871094
282,80089.0,6.428621292114258,-1.4845508337020874,-3.6691031455993652,-61.48139953613281,-9.672379493713379,-23.012575149536133
283,80099.0,6.421134948730469,-1.8833131790161133,-4.317018032073975,-71.00289154052734,-11.142966270446777,-19.01873779296875
284,80109.0,5.015341758728027,-1.2352104187011719,-4.085150718688965,-84.7711410522461,-11.848492622375488,-12.198343276977539
285,80119.0,3.5414938926696777,-1.1266618967056274,-4.303607940673828,-87.91368865966797,-12.31241226196289,-5.517401695251465
286,80129.0,2.733506441116333,-0.996036171913147,-4.366542816162109,-79.84761047363281,-17.224241256713867,-2.856940507888794
287,80139.0,1.8351694345474243,-0.937498152256012,-4.462230205535889,-64.66868591308594,-23.60186195373535,-4.786513805389404
288,80149.0,0.9889442920684814,-0.5040509700775146,-4.412290573120117,-45.19023513793945,-28.196931838989258,-7.25839900970459
289,80159.0,0.7180278301239014,-0.09772118926048279,-4.427560806274414,-28.84725570678711,-29.668121337890625,-9.261838912963867
290,80169.0,0.4049202501773834,0.23983749747276306,-4.505201816558838,-23.147205352783203,-27.397092819213867,-10.1612548828125
291,80179.0,0.39508846402168274,0.5465549826622009,-4.613162517547607,-22.492229461669922,-23.145906448364258,-7.851264476776123
292,80189.0,0.3730328381061554,0.7850051522254944,-4.716396331787109,-23.274248123168945,-17.292951583862305,-4.511516094207764
293,80199.0,0.7599716186523438,0.9438813924789429,-4.843318939208984,-30.64145851135254,-12.070579528808594,-1.806423306465149
294,80209.0,0.04921162873506546,1.0122671127319336,-4.78516149520874,-37.10985565185547,-9.297321319580078,2.2667248249053955
295,80219.0,-0.05252525582909584,0.8560800552368164,-4.760550022125244,-38.250732421875,-8.850480079650879,7.125005722045898
296,80229.0,-0.47146376967430115,1.0475562810897827,-4.7218756675720215,-39.00730514526367,-9.603772163391113,9.765028953552246
297,80239.0,-0.7544202208518982,0.8932772874832153,-4.561573505401611,-38.3361701965332,-10.803426742553711,6.6753926277160645
298,80249.0,-0.9890487194061279,1.0016372203826904,-4.5160017013549805,-35.94924545288086,-11.706268310546875,-0.07999051362276077
299,80259.0,-1.5326240062713623,1.1194056272506714,-4.44313383102417,-35.94265365600586,-11.725972175598145,-6.922475814819336
300,80269.0,-1.8898833990097046,1.4408272504806519,-4.579775333404541,-37.543697357177734,-10.76904296875,-12.13019847869873
301,80279.0,-2.2074649333953857,1.5197503566741943,-4.674776077270508,-34.6635627746582,-9.715470314025879,-12.883245468139648
302,80289.0,-2.488906145095825,1.5873726606369019,-4.796200275421143,-28.78709602355957,-8.836803436279297,-11.039474487304688
303,80299.0,-2.6880273818969727,1.3686784505844116,-4.743319511413574,-23.207050323486328,-8.136794090270996,-8.521671295166016
304,80309.0,-2.683964729309082,1.4676275253295898,-4.913814067840576,-22.6828556060791,-7.269301891326904,-5.631292819976807
305,80319.0,-2.8391060829162598,1.2720658779144287,-4.801379203796387,-27.795122146606445,-6.735394477844238,-2.3431947231292725
306,80329.0,-3.1364200115203857,1.5897743701934814,-4.993420124053955,-31.381235122680664,-7.202847480773926,4.834599018096924
307,80339.0,-3.191122055053711,1.8730759620666504,-5.203614234924316,-33.67475128173828,-8.400394439697266,12.892192840576172
308,80349.0,-3.6888341903686523,1.8527288436889648,-4.95925760269165,-37.125362396240234,-9.896029472351074,17.990310668945312
309,80359.0,-4.127800464630127,1.9284416437149048,-4.749575138092041,-28.7277774810791,-9.868844985961914,15.929622650146484
310,80369.0,-4.3494873046875,1.7170097827911377,-4.3641252517700195,-12.171558380126953,-8.420671463012695,8.529233932495117
311,80379.0,-4.477260112762451,2.3163864612579346,-4.695329189300537,-3.9179892539978027,-5.405953884124756,-0.5745726823806763
312,80389.0,-4.2953200340271,2.0254335403442383,-4.449643611907959,-2.7967002391815186,-2.310600996017456,-6.272201061248779
313,80399.0,-4.141567230224609,2.0155036449432373,-4.520743370056152,-0.715803325176239,0.47198957204818726,-6.627949237823486
314,80409.0,-3.998880386352539,1.6943585872650146,-4.352569103240967,5.5302205085754395,2.932284116744995,0.7485424280166626
315,80419.0,-3.719949722290039,1.66569983959198,-4.453116416931152,11.795395851135254,5.053223133087158,11.312529563903809
316,80429.0,-3.4466984272003174,1.5911438465118408,-4.413355827331543,18.100149154663086,7.728323936462402,17.40723991394043
317,80439.0,-2.723421573638916,1.7493467330932617,-4.663394451141357,25.156496047973633,10.237095832824707,13.619553565979004
318,80449.0,-2.2166433334350586,1.3412882089614868,-4.343623638153076,27.903833389282227,11.617878913879395,2.5080838203430176
319,80459.0,-2.186185598373413,1.3878049850463867,-4.332681655883789,29.738340377807617,11.739542007446289,-5.554364204406738
320,80469.0,-1.868717908859253,1.132254719734192,-4.26258659362793,34.68764877319336,11.705242156982422,-7.386070251464844
321,80479.0,-1.2099785804748535,1.0365581512451172,-4.449990272521973,38.76286697387695,11.786216735839844,-3.827770948410034
322,80489.0,-0.8819518089294434,1.1382253170013428,-4.642420768737793,39.507694244384766,12.110817909240723,5.917595863342285
323,80499.0,-0.1978192925453186,0.7216164469718933,-4.4990434646606445,37.63618850708008,13.439961433410645,18.670133590698242
324,80509.0,0.5467440485954285,0.5336103439331055,-4.403269290924072,38.74581527709961,15.637954711914062,24.378192901611328
325,80519.0,0.8283413052558899,0.32704228162765503,-4.11125373840332,40.82624435424805,16.9232234954834,19.892440795898438
326,80529.0,1.2176764011383057,0.3138428330421448,-3.9518322944641113,38.13139343261719,16.511390686035156,9.797869682312012
327,80539.0,1.5008835792541504,0.08339045196771622,-3.7699244022369385,31.676162719726562,14.79526138305664,3.2644662857055664
328,80549.0,1.8419668674468994,-0.10714675486087799,-3.7000434398651123,27.645179748535156,12.071288108825684,1.8009785413742065
329,80559.0,2.1823573112487793,-0.2485641986131668,-3.675959348678589,27.99095916748047,9.145342826843262,3.114238739013672
330,80569.0,2.1730446815490723,-0.33921343088150024,-3.619032621383667,27.240331649780273,5.54456090927124,7.045618057250977
331,80579.0,2.5961716175079346,-0.3725025951862335,-3.5702061653137207,25.627939224243164,2.5341367721557617,13.872027397155762
332,80589.0,2.8395538330078125,-0.3565526008605957,-3.452801465988159,26.587051391601562,1.8009921312332153,21.731517791748047
333,80599.0,3.0271220207214355,-0.3279399573802948,-3.255401611328125,35.07402420043945,3.5918800830841064,23.880481719970703
334,80609.0,3.472824811935425,-0.33003419637680054,-3.017235279083252,39.84319305419922,4.339887619018555,20.67616081237793
335,80619.0,3.837940216064453,-0.34225401282310486,-2.7896528244018555,35.17959976196289,0.2968946397304535,14.292098045349121
336,80629.0,4.797718524932861,-0.30286163091659546,-2.6111695766448975,29.126876831054688,-4.076227188110352,13.230554580688477
337,80639.0,4.970933437347412,-0.7388744950294495,-2.5736243724823,26.698383331298828,-6.553105354309082,17.124675750732422
338,80649.0,4.955252647399902,0.022133169695734978,-2.2564785480499268,27.126615524291992,-6.960474014282227,20.508563995361328
339,80659.0,5.153667449951172,0.15187488496303558,-2.0521609783172607,26.61764144897461,-6.056765556335449,17.213998794555664
340,80669.0,5.34428071975708,0.2648734450340271,-1.861415147781372,26.861347198486328,-5.3158369064331055,10.258776664733887
341,80679.0,5.171567440032959,0.35283976793289185,-1.7369612455368042,25.68880844116211,-4.492481708526611,2.6141929626464844
342,80689.0,6.010801792144775,-0.051543157547712326,-1.8819400072097778,16.966272354125977,-3.4245760440826416,-1.4821898937225342
343,80699.0,6.048872470855713,0.5315622091293335,-1.640239953994751,11.58779239654541,-1.3190921545028687,-0.6545405983924866
344,80709.0,5.900203704833984,0.5252910256385803,-1.6597234010696411,12.728126525878906,0.3210051357746124,2.837902069091797
345,80719.0,6.052128314971924,0.4963509440422058,-1.6578104496002197,14.953295707702637,0.8066376447677612,6.55980110168457
346,80729.0,5.501728534698486,0.46846237778663635,-1.590983510017395,17.76148223876953,0.3499482572078705,10.190136909484863
347,80739.0,5.960760116577148,0.44732311367988586,-1.5234339237213135,23.28670883178711,-0.14309534430503845,11.033703804016113
348,80749.0,6.5142059326171875,0.4365701377391815,-1.4411956071853638,29.523151397705078,-0.006918915081769228,8.389567375183105
349,80759.0,6.138484477996826,0.42999976873397827,-1.322441816329956,27.9385929107666,0.747199296951294,4.318710803985596
350,80769.0,6.855350494384766,0.4003015458583832,-1.3084068298339844,16.182327270507812,0.7524920105934143,3.086223840713501
351,80779.0,6.651468276977539,0.3778670132160187,-1.2625060081481934,7.260741233825684,0.22384518384933472,6.335299491882324
352,80789.0,6.7013726234436035,0.3653572201728821,-1.217374563217163,11.443841934204102,-0.03530608490109444,9.422691345214844
353,80799.0,6.773554801940918,0.3598558306694031,-1.1412231922149658,15.547035217285156,-0.04315837845206261,9.08530330657959
354,80809.0,7.264973163604736,0.3556482493877411,-1.076274037361145,14.749216079711914,0.5309095978736877,5.9019927978515625
355,80819.0,7.631906986236572,0.34695151448249817,-1.0247234106063843,12.299741744995117,1.2277783155441284,-0.8205237984657288
356,80829.0,7.076623916625977,0.32814469933509827,-0.9766920208930969,13.500378608703613,1.8716596364974976,-10.693777084350586
357,80839.0,7.5109663009643555,0.008160380646586418,-1.2615095376968384,17.050033569335938,2.5325162410736084,-16.005327224731445
358,80849.0,7.4206647872924805,0.264931857585907,-1.1900508403778076,16.620647430419922,2.541236400604248,-13.716371536254883
359,80859.0,8.205206871032715,0.1988663226366043,-1.371309757232666,11.096732139587402,1.2044938802719116,-3.4724044799804688
360,80869.0,7.6502180099487305,-0.041217125952243805,-1.565708875656128,7.846835136413574,-0.30633988976478577,10.23887825012207
361,80879.0,7.733780860900879,0.20271427929401398,-1.3373664617538452,8.579380989074707,-0.27145251631736755,15.876220703125
362,80889.0,8.410820960998535,0.2145858108997345,-1.2146683931350708,9.911967277526855,1.0729293823242188,9.14566707611084
363,80899.0,8.14305591583252,0.20721064507961273,-1.0984771251678467,6.839834213256836,2.908158779144287,-2.6914961338043213
364,80909.0,8.422630310058594,0.16008669137954712,-1.1059370040893555,-0.3951949179172516,3.4271092414855957,-10.62216854095459
365,80919.0,8.305940628051758,0.09785227477550507,-1.1931909322738647,-5.003788948059082,2.127210855484009,-10.462385177612305
366,80929.0,8.117280006408691,0.05569944530725479,-1.293904423713684,-4.5444464683532715,0.4892979562282562,-5.5158796310424805
367,80939.0,7.822469234466553,0.043696846812963486,-1.3549202680587769,-3.971998453140259,-0.2301088124513626,-1.5294381380081177
368,80949.0,7.8414998054504395,0.05150916799902916,-1.373367428779602,-6.223170280456543,-0.898882269859314,-1.5279024839401245
369,80959.0,7.678828716278076,0.07650654017925262,-1.3702377080917358,-10.017195701599121,-2.276448965072632,-5.18212366104126
370,80969.0,7.480198383331299,0.12175729125738144,-1.3858530521392822,-14.995680809020996,-3.3920774459838867,-10.835702896118164
371,80979.0,6.883934497833252,0.24667231738567352,-1.401781678199768,-20.803504943847656,-4.339794158935547,-15.866411209106445
372,80989.0,5.791360855102539,0.29746606945991516,-1.5216615200042725,-24.876300811767578,-4.762791633605957,-16.43935203552246
373,80999.0,5.802838325500488,0.3539709746837616,-1.6760410070419312,-34.54779052734375,-4.978409767150879,-16.466527938842773
374,81009.0,5.426075458526611,0.27342095971107483,-1.9039254188537598,-44.2314453125,-5.516926288604736,-19.61148452758789
375,81019.0,4.984798908233643,0.21785327792167664,-2.1367392539978027,-44.93939971923828,-5.130894660949707,-23.667680740356445
376,81029.0,4.66759729385376,0.30522289872169495,-2.341787815093994,-33.84231185913086,-3.6673781871795654,-23.050424575805664
377,81039.0,4.215876579284668,0.36020392179489136,-2.563575506210327,-24.758468627929688,-2.2336323261260986,-18.468975067138672
378,81049.0,3.9105050563812256,0.3892040252685547,-2.755711793899536,-31.033994674682617,-2.0107061862945557,-11.550085067749023
379,81059.0,3.603785991668701,0.41583648324012756,-2.885572910308838,-44.05200958251953,-3.455289363861084,-5.611475467681885
380,81069.0,3.7640817165374756,1.0003812313079834,-2.854231357574463,-53.19530487060547,-5.000335216522217,-6.401255130767822
381,81079.0,3.4359824657440186,0.7930181622505188,-2.959834098815918,-54.518131256103516,-6.829154968261719,-12.547693252563477
382,81089.0,2.6469531059265137,1.3004578351974487,-2.987339973449707,-50.89693832397461,-10.555956840515137,-18.076900482177734
383,81099.0,2.1452183723449707,1.1267380714416504,-3.165712356567383,-42.878787994384766,-14.02872085571289,-19.12755584716797
384,81109.0,1.5518105030059814,1.509716272354126,-3.3414740562438965,-41.79344177246094,-16.937129974365234,-20.021352767944336
385,81119.0,1.410361647605896,1.0451534986495972,-3.528803825378418,-50.465091705322266,-20.17084312438965,-18.7719783782959
386,81129.0,1.1377379894256592,1.055775761604309,-3.7268259525299072,-51.11166763305664,-22.64767074584961,-11.498035430908203
387,81139.0,0.4058520495891571,1.4024193286895752,-3.866281270980835,-36.965232849121094,-22.8758602142334,-3.181926965713501
388,81149.0,-0.10400423407554626,1.7370482683181763,-3.935926914215088,-19.79094886779785,-19.682825088500977,0.8572834730148315
389,81159.0,-0.33309176564216614,2.004635810852051,-3.955615997314453,-10.2264986038208,-13.75928020477295,-0.3744477331638336
390,81169.0,-0.4147047996520996,2.112142562866211,-3.936744451522827,-3.0567548274993896,-6.684975624084473,-2.8046672344207764
391,81179.0,-0.38700389862060547,2.1881117820739746,-3.9605062007904053,7.66825008392334,-0.37832385301589966,-4.240418910980225
392,81189.0,-0.2139987200498581,2.1650097370147705,-4.001728534698486,14.630627632141113,4.293580532073975,-4.264036655426025
393,81199.0,0.0668022632598877,2.069887638092041,-4.047031402587891,13.092411994934082,5.843133926391602,-0.7703778147697449
394,81209.0,0.3246000409126282,1.948994755744934,-4.060372829437256,1.0280848741531372,5.8156561851501465,0.4743843078613281
395,81219.0,0.48190557956695557,1.83269202709198,-4.048488616943359,-1.161670446395874,4.317781448364258,-0.4182632863521576
396,81229.0,0.4901582598686218,1.7419880628585815,-4.027958393096924,3.9698140621185303,2.5296883583068848,-1.3974567651748657
397,81239.0,0.5489323735237122,1.6878015995025635,-4.034719944000244,9.307740211486816,2.6599371433258057,-2.726731061935425
398,81249.0,0.6896660923957825,1.6383001804351807,-4.055414199829102,12.620681762695312,4.728944301605225,-6.874345302581787
399,81259.0,0.8768256902694702,1.5606917142868042,-4.102632522583008,12.8593111038208,7.4532389640808105,-9.581954002380371
400,81269.0,0.9362991452217102,1.4453043937683105,-4.145874500274658,16.03596305847168,9.25118350982666,-7.692100524902344
401,81279.0,1.186435580253601,1.3095194101333618,-4.22747802734375,20.596036911010742,9.200295448303223,1.4052220582962036
402,81289.0,1.4864171743392944,1.3857674598693848,-4.349049091339111,25.0206241607666,7.802276611328125,17.981273651123047
403,81299.0,1.5673264265060425,1.3920634984970093,-4.231464385986328,29.92888641357422,7.233922004699707,35.10379409790039
404,81309.0,1.9383819103240967,1.2000256776809692,-3.892896890640259,30.0745792388916,7.166779041290283,46.72412109375
405,81319.0,2.2996959686279297,1.1659493446350098,-3.4754433631896973,26.647714614868164,7.180215358734131,52.450557708740234
406,81329.0,2.4631922245025635,1.0663120746612549,-2.9254159927368164,22.125165939331055,8.045056343078613,52.84703063964844
407,81339.0,2.8970048427581787,0.6961548924446106,-2.3112385272979736,13.523152351379395,10.139676094055176,47.557167053222656
408,81349.0,3.0396759510040283,0.6167676448822021,-1.8062466382980347,9.478708267211914,12.60525894165039,39.55364990234375
409,81359.0,2.9936206340789795,1.0337419509887695,-1.501421332359314,11.970046997070312,15.061457633972168,35.099578857421875
410,81369.0,3.1181604862213135,0.7945371270179749,-1.1059978008270264,11.072534561157227,18.310115814208984,31.427385330200195
411,81379.0,3.245184898376465,0.5221027135848999,-0.7464651465415955,11.41118335723877,22.460111618041992,23.44117546081543
412,81389.0,3.384082317352295,0.19825337827205658,-0.4536474645137787,16.323759078979492,26.7559814453125,13.048477172851562
413,81399.0,3.5972650051116943,-0.18252119421958923,-0.2596108615398407,23.83185577392578,31.09929656982422,6.738193511962891
414,81409.0,4.043504238128662,-0.6164353489875793,-0.1436173915863037,24.63874053955078,33.9705810546875,8.020623207092285
415,81419.0,4.209753036499023,-1.070908784866333,-0.0406905859708786,16.052698135375977,33.734066009521484,11.473904609680176
416,81429.0,4.337995529174805,-1.4987516403198242,0.08759960532188416,6.199130058288574,31.637537002563477,8.91660213470459
417,81439.0,4.4511637687683105,-1.8752511739730835,0.2169656753540039,2.0241310596466064,28.739017486572266,2.830447196960449
418,81449.0,4.410449504852295,-2.196727752685547,0.27573227882385254,5.481877326965332,28.628076553344727,-1.6133583784103394
419,81459.0,4.609886646270752,-2.503732442855835,0.33153092861175537,5.320387840270996,31.4996280670166,-2.2772140502929688
420,81469.0,4.453354835510254,-2.851959228515625,0.2661900520324707,1.7905519008636475,33.68889236450195,5.132312774658203
421,81479.0,4.617086887359619,-3.22106671333313,0.3535352349281311,0.12545858323574066,33.816749572753906,16.060787200927734
422,81489.0,4.523265361785889,-3.8410227298736572,0.42802509665489197,-2.0561444759368896,32.510406494140625,21.130535125732422
423,81499.0,4.369077682495117,-3.8696391582489014,0.6187116503715515,-3.3537344932556152,30.827056884765625,16.740219116210938
424,81509.0,4.145226955413818,-4.173118591308594,0.7269577980041504,1.5803583860397339,31.195642471313477,9.066521644592285
425,81519.0,4.212640285491943,-4.477738380432129,0.8985553979873657,4.797355651855469,33.27071762084961,6.110066890716553
426,81529.0,4.102485656738281,-5.32879114151001,0.8234565854072571,2.661785840988159,35.760597229003906,6.912943363189697
427,81539.0,4.291292667388916,-5.610800743103027,1.0175085067749023,-1.1942417621612549,36.349998474121094,3.4601266384124756
428,81549.0,4.253787994384766,-5.91208553314209,1.0715032815933228,-2.5361063480377197,34.5501594543457,-7.686858177185059
429,81559.0,4.677152633666992,-6.202071189880371,1.4173132181167603,-0.6799781918525696,31.850770950317383,-19.131486892700195
430,81569.0,4.133490085601807,-6.47266149520874,0.873539924621582,1.0014539957046509,30.590805053710938,-17.506023406982422
431,81579.0,3.901211738586426,-6.7118330001831055,0.5256240367889404,-0.21354533731937408,31.110477447509766,-3.2672832012176514
432,81589.0,3.908212184906006,-6.946859836578369,0.46826717257499695,-4.219153881072998,30.930404663085938,11.93652057647705
433,81599.0,4.018969535827637,-7.190505027770996,0.6724115610122681,-4.706905841827393,29.085317611694336,17.93449592590332
434,81609.0,3.9567043781280518,-7.408638954162598,0.8300586938858032,-3.213416337966919,26.459606170654297,12.154326438903809
435,81619.0,3.9179110527038574,-7.590521335601807,0.9931924939155579,-2.142345666885376,24.47624969482422,1.5990630388259888
436,81629.0,4.033164024353027,-7.7445454597473145,1.2186906337738037,-3.222334384918213,23.656925201416016,-7.137266635894775
437,81639.0,3.8257193565368652,-7.8978071212768555,1.0231571197509766,-0.3430897295475006,23.112272262573242,-8.705961227416992
438,81649.0,4.382848262786865,-8.054969787597656,1.5931968688964844,-0.054779257625341415,22.907398223876953,-3.9086122512817383
439,81659.0,3.58569073677063,-8.22983455657959,0.6820260286331177,-1.269856572151184,21.707792282104492,1.2770040035247803
440,81669.0,3.6189801692962646,-8.253707885742188,0.7508405447006226,-1.5846021175384521,20.09553337097168,3.3663954734802246
441,81679.0,3.6367595195770264,-8.531832695007324,0.8199222087860107,-0.9103376269340515,19.680444717407227,2.262672185897827
442,81689.0,3.7267870903015137,-8.640401840209961,0.9833275675773621,-0.5018497705459595,20.014745712280273,0.4692687392234802
443,81699.0,3.659122943878174,-8.77623176574707,0.9369828104972839,-1.2639847993850708,19.348474502563477,3.400778293609619
444,81709.0,3.3729476928710938,-8.908305168151855,0.6435026526451111,-4.123937606811523,15.948494911193848,8.965784072875977
445,81719.0,3.6035163402557373,-8.533651351928711,1.0368837118148804,-6.834513187408447,11.534238815307617,7.626804351806641
446,81729.0,3.5389273166656494,-8.5614013671875,1.1176121234893799,-5.5070600509643555,8.889185905456543,-2.595433473587036
447,81739.0,3.5488264560699463,-8.882742881774902,1.2195438146591187,1.1187994480133057,7.857134819030762,-10.68266487121582
448,81749.0,3.9137284755706787,-9.144402503967285,1.6042426824569702,4.8344879150390625,8.100852966308594,-9.661681175231934
449,81759.0,3.6389482021331787,-9.107024192810059,1.164463996887207,1.519073486328125,7.084115982055664,-2.534802198410034
450,81769.0,4.244684219360352,-8.619614601135254,1.8143905401229858,-5.4298319816589355,3.581109046936035,1.6518912315368652
451,81779.0,3.6713004112243652,-8.847280502319336,1.1908373832702637,-7.582451343536377,-0.9744486808776855,0.7455341815948486
452,81789.0,3.480558395385742,-8.734068870544434,1.0752640962600708,-7.236638069152832,-3.860059976577759,-1.8829035758972168
453,81799.0,3.373661994934082,-8.879936218261719,1.0273349285125732,-6.085738658905029,-4.365830421447754,-5.824163913726807
454,81809.0,3.4230074882507324,-8.716751098632812,1.122182846069336,-6.0059003829956055,-5.3056182861328125,-11.784442901611328
455,81819.0,3.162078619003296,-8.555963516235352,0.8161817789077759,-8.391194343566895,-9.450835227966309,-14.76761531829834
456,81829.0,3.3190035820007324,-8.352436065673828,0.9473499655723572,-9.04336929321289,-15.83787727355957,-11.984489440917969
457,81839.0,3.1409027576446533,-8.072914123535156,0.7334663271903992,-10.882695198059082,-21.752038955688477,-5.9671525955200195
458,81849.0,2.741720676422119,-7.441382884979248,0.3367146849632263,-19.168254852294922,-26.744142532348633,-6.370786666870117
459,81859.0,2.4953577518463135,-7.33386754989624,0.20221388339996338,-24.849746704101562,-31.275075912475586,-14.383299827575684
460,81869.0,2.2333216667175293,-6.8609232902526855,0.054784778505563736,-24.34963607788086,-34.95042419433594,-19.974950790405273
461,81879.0,1.6899409294128418,-6.35491943359375,-0.3997223377227783,-24.629114151000977,-37.87090301513672,-17.783552169799805
462,81889.0,1.9517261981964111,-5.84589958190918,-0.1792268455028534,-26.169523239135742,-41.78085708618164,-10.187694549560547
463,81899.0,1.0356528759002686,-4.74540376663208,-0.9133869409561157,-25.322946548461914,-46.88725662231445,-4.348389148712158
464,81909.0,0.7844020128250122,-4.571523189544678,-0.9207012057304382,-19.972652435302734,-51.65921401977539,-3.6691524982452393
465,81919.0,0.6755770444869995,-4.131399154663086,-0.8801509737968445,-20.8526611328125,-57.37797164916992,-9.563143730163574
466,81929.0,0.36519160866737366,-3.3907487392425537,-1.0572023391723633,-27.231019973754883,-62.8452262878418,-20.823659896850586
467,81939.0,0.12354684621095657,-2.592465400695801,-1.2729668617248535,-32.24330520629883,-66.55574035644531,-34.46942901611328
468,81949.0,-0.059790220111608505,-1.7741163969039917,-1.5880264043807983,-33.177371978759766,-66.70623016357422,-45.58310317993164
469,81959.0,-0.19761474430561066,-0.7899199724197388,-2.083108901977539,-25.14004898071289,-62.6312141418457,-46.9128303527832
470,81969.0,-0.7689643502235413,0.17652100324630737,-2.6852264404296875,-13.08273696899414,-56.487518310546875,-39.276947021484375
471,81979.0,-0.11185075342655182,0.7687754034996033,-3.1739351749420166,-5.2631354331970215,-50.940330505371094,-30.934555053710938
472,81989.0,-0.1409742385149002,1.1716150045394897,-3.460301160812378,-3.875026226043701,-48.858009338378906,-26.869123458862305
473,81999.0,-0.0027203531935811043,1.5416022539138794,-3.7363498210906982,-1.2957097291946411,-52.01007843017578,-23.90258026123047
474,82009.0,-0.06181146949529648,1.9043951034545898,-3.8979251384735107,-0.43653160333633423,-57.568138122558594,-19.617530822753906
475,82019.0,-0.03579286113381386,2.171570062637329,-3.9774694442749023,-9.829984664916992,-61.78982925415039,-13.784631729125977
476,82029.0,-0.20882223546504974,2.5528674125671387,-3.957200527191162,-17.251829147338867,-63.346923828125,-8.618597030639648
477,82039.0,-0.7559493184089661,3.1672215461730957,-3.7792344093322754,-12.3357515335083,-62.85734939575195,-6.098834037780762
478,82049.0,-0.7778600454330444,3.8164823055267334,-3.9245316982269287,-0.08353353291749954,-59.82612991333008,-5.239323139190674
479,82059.0,-1.0684219598770142,4.421165466308594,-3.758089780807495,9.729994773864746,-53.388336181640625,-1.2163469791412354
480,82069.0,-0.8837649822235107,4.940385818481445,-3.8555524349212646,11.375068664550781,-47.95417785644531,8.056448936462402
481,82079.0,-0.5423464775085449,5.376856327056885,-3.9966893196105957,15.70422649383545,-46.856292724609375,19.728126525878906
482,82089.0,-0.2587455213069916,5.781489372253418,-3.957035779953003,21.109966278076172,-49.241416931152344,26.85065269470215
483,82099.0,0.03868807107210159,6.785521030426025,-4.095137596130371,21.25046730041504,-51.62725830078125,25.3079891204834
484,82109.0,0.3149228096008301,6.727569580078125,-3.679110288619995,12.518877029418945,-50.78959655761719,13.561304092407227
485,82119.0,0.9662599563598633,7.363568305969238,-4.171808242797852,6.258980751037598,-47.4931526184082,-0.3289327323436737
486,82129.0,1.0045126676559448,7.833495616912842,-4.080312728881836,5.919920444488525,-42.50810241699219,-8.20545768737793
487,82139.0,1.207802414894104,8.394579887390137,-4.373103618621826,9.362061500549316,-38.16180419921875,-7.040600299835205
488,82149.0,0.7080118656158447,8.146509170532227,-3.440746784210205,8.451271057128906,-36.31782913208008,-1.2903709411621094
489,82159.0,1.0860044956207275,8.938568115234375,-4.011952877044678,7.514657974243164,-36.8880500793457,1.3693203926086426
490,82169.0,1.5947458744049072,8.695541381835938,-4.462301254272461,9.33481502532959,-39.96288299560547,-1.208085536956787
491,82179.0,1.2408791780471802,9.04929256439209,-3.8075733184814453,5.862698554992676,-43.78520584106445,-8.018415451049805
492,82189.0,0.9843670129776001,9.49042797088623,-3.364198684692383,1.0068316459655762,-45.890377044677734,-15.718414306640625
493,82199.0,1.6496059894561768,9.968297958374023,-4.452092170715332,3.4497694969177246,-43.83452606201172,-17.220407485961914
494,82209.0,1.6401314735412598,10.532130241394043,-4.56374979019165,4.128330230712891,-38.044029235839844,-10.523797035217285
495,82219.0,1.6378190517425537,11.198582649230957,-4.635459899902344,2.0324487686157227,-31.13859748840332,0.31089872121810913
496,82229.0,1.5921556949615479,11.437305450439453,-4.535462379455566,0.8581251502037048,-25.884729385375977,7.963782787322998
497,82239.0,1.3546597957611084,11.302043914794922,-4.044084548950195,0.4524208903312683,-22.694345474243164,9.18382740020752
498,82249.0,1.4471224546432495,11.553629875183105,-4.119444847106934,-3.327176809310913,-20.26980209350586,1.8893181085586548
499,82259.0,0.6745213270187378,11.58818244934082,-2.8222765922546387,-5.929797649383545,-17.102489471435547,-10.102373123168945
500,82269.0,1.1099117994308472,11.557931900024414,-3.644835948944092,-5.5889739990234375,-14.169410705566406,-15.72325325012207
501,82279.0,0.9245684146881104,11.371017456054688,-3.4742839336395264,-5.42258882522583,-11.951916694641113,-14.154391288757324
502,82289.0,0.8513049483299255,11.416086196899414,-3.535383939743042,-4.929999828338623,-10.227237701416016,-8.36065673828125
503,82299.0,0.9421042799949646,11.316340446472168,-3.8154799938201904,-3.516124725341797,-7.842273235321045,0.4796830117702484
504,82309.0,0.863146960735321,11.331977844238281,-3.760624647140503,-1.234725832939148,-4.402700424194336,11.206880569458008
505,82319.0,0.8787621855735779,11.383559226989746,-3.7627182006835938,-0.9051733016967773,0.0983545184135437,18.593669891357422
506,82329.0,0.8790108561515808,11.07387924194336,-3.6122658252716064,-4.747801303863525,5.489795684814453,12.934234619140625
507,82339.0,0.8322778940200806,11.116909980773926,-3.4865310192108154,-7.910278797149658,11.142210960388184,-4.95342493057251
508,82349.0,0.6779679656028748,10.689595222473145,-3.2833590507507324,-4.042608737945557,17.51657485961914,-22.36363983154297
509,82359.0,0.5475368499755859,10.148690223693848,-3.2283682823181152,1.226670742034912,24.114131927490234,-24.50897789001465
510,82369.0,0.22582608461380005,9.677366256713867,-2.871898651123047,2.854947805404663,29.17074966430664,-8.365069389343262
511,82379.0,0.6492085456848145,9.160350799560547,-3.5448267459869385,-2.5389297008514404,32.913631439208984,13.818976402282715
512,82389.0,0.3105289936065674,8.465712547302246,-2.9245615005493164,-11.047691345214844,35.9106330871582,20.9105167388916
513,82399.0,0.46063828468322754,8.13570499420166,-3.0994789600372314,-12.904651641845703,40.214881896972656,8.643040657043457
514,82409.0,0.3162667453289032,7.517563819885254,-2.919415235519409,-3.086536407470703,45.47959518432617,-2.7208096981048584
515,82419.0,0.24607133865356445,6.138909816741943,-2.731893539428711,7.76448917388916,52.15979766845703,0.074577696621418
516,82429.0,0.13872398436069489,5.507950782775879,-2.5307669639587402,9.30492115020752,56.639427185058594,11.869474411010742
517,82439.0,0.16023752093315125,5.1122050285339355,-2.412755012512207,3.2917263507843018,58.040523529052734,24.385372161865234
518,82449.0,0.5805376768112183,4.194726943969727,-2.518653392791748,-5.680302143096924,56.00178527832031,23.16172218322754
519,82459.0,0.4720887839794159,3.569957733154297,-2.1950185298919678,-3.229787826538086,54.853431701660156,9.151874542236328
520,82469.0,-0.22586119174957275,3.5179057121276855,-1.6332954168319702,-0.7266021370887756,56.26438903808594,-6.861510753631592
521,82479.0,0.43245863914489746,2.8437142372131348,-2.0874881744384766,-2.094695568084717,60.05099105834961,-18.86115074157715
522,82489.0,0.39737969636917114,2.135899543762207,-2.1921918392181396,-0.5540529489517212,64.0809555053711,-23.879240036010742
523,82499.0,-0.27711883187294006,0.9904258251190186,-1.9861061573028564,-0.4647164046764374,65.51709747314453,-21.2680721282959
524,82509.0,-0.1957065612077713,0.10762947052717209,-2.190042018890381,-4.74616813659668,66.23931884765625,-17.472978591918945
525,82519.0,-1.6739290952682495,-0.5450897216796875,-2.0629024505615234,-6.724626541137695,65.16755676269531,-16.490697860717773
526,82529.0,-1.7545146942138672,-0.9106545448303223,-2.313432455062866,-9.17567253112793,63.918827056884766,-19.123275756835938
527,82539.0,-1.0011498928070068,-1.5480847358703613,-2.483614683151245,-3.5128173828125,63.74238967895508,-20.606231689453125
528,82549.0,-0.8737595677375793,-2.16856050491333,-2.674802303314209,11.909406661987305,65.40059661865234,-16.510927200317383
529,82559.0,-0.563832700252533,-2.8336775302886963,-2.7944815158843994,19.75081443786621,67.81343078613281,-6.965548515319824
530,82569.0,-0.3853699564933777,-2.736504316329956,-3.1260783672332764,17.61079216003418,69.52125549316406,0.2544477581977844
531,82579.0,0.030217468738555908,-3.5199809074401855,-3.0201828479766846,13.200011253356934,67.84351348876953,3.2278974056243896
532,82589.0,0.2721926271915436,-4.233913421630859,-2.9335477352142334,11.262758255004883,61.342994689941406,8.779326438903809
533,82599.0,1.2339109182357788,-4.875266075134277,-2.327688455581665,8.115862846374512,52.736732482910156,10.839696884155273
534,82609.0,1.333146333694458,-5.348738670349121,-2.231821060180664,8.627575874328613,45.919864654541016,7.79140567779541
535,82619.0,0.7788109183311462,-5.767542362213135,-2.6469976902008057,14.305190086364746,41.06248474121094,3.763662099838257
536,82629.0,1.685846209526062,-6.0785980224609375,-1.922003149986267,16.189964294433594,39.90339660644531,-1.6761736869812012
537,82639.0,1.6610314846038818,-6.761369228363037,-2.043596029281616,15.628643989562988,38.79619216918945,-2.7566988468170166
538,82649.0,1.408133625984192,-6.882602691650391,-2.5110080242156982,17.390703201293945,35.968204498291016,1.50959050655365
539,82659.0,2.2770919799804688,-6.830687046051025,-1.7824559211730957,17.072372436523438,32.48466873168945,5.623678684234619
540,82669.0,1.8080692291259766,-7.633444786071777,-2.414335250854492,14.03869342803955,28.314437866210938,5.160383224487305
541,82679.0,2.033560276031494,-7.109528541564941,-2.301743984222412,7.655153751373291,24.27684211730957,-3.5513739585876465
542,82689.0,0.24111783504486084,-7.677378177642822,-4.54580020904541,6.32862663269043,20.998212814331055,-12.800980567932129
543,82699.0,0.5091691017150879,-7.840406894683838,-4.369446277618408,6.787614345550537,18.52959442138672,-17.349130630493164
544,82709.0,0.5258817076683044,-7.661765098571777,-4.599127292633057,6.350473403930664,16.059837341308594,-16.230375289916992
545,82719.0,1.142769455909729,-7.264227867126465,-4.062192916870117,3.4218087196350098,11.851465225219727,-10.38775634765625
546,82729.0,1.114586353302002,-7.429251670837402,-4.252142906188965,1.3579522371292114,5.869148254394531,-2.8988709449768066
547,82739.0,1.4335732460021973,-7.109958648681641,-3.9261090755462646,1.0889869928359985,0.6550750136375427,6.203974723815918
548,82749.0,1.6624115705490112,-7.054444313049316,-3.6277658939361572,4.466851234436035,-1.1002719402313232,12.13116455078125
549,82759.0,2.1397857666015625,-6.971504211425781,-2.9583892822265625,9.113690376281738,-0.8044664859771729,11.18423080444336
550,82769.0,2.1141178607940674,-6.976770401000977,-2.9822640419006348,16.02272605895996,0.05609697103500366,11.046525001525879
551,82779.0,2.294201612472534,-6.601390838623047,-2.836120128631592,18.57896614074707,0.13743212819099426,12.39130973815918
552,82789.0,2.663322925567627,-6.382691383361816,-2.492901086807251,10.012676239013672,-1.7840802669525146,12.311049461364746
553,82799.0,2.889770030975342,-6.444817066192627,-2.2713472843170166,-0.5455068349838257,-6.29484748840332,7.0777435302734375
554,82809.0,2.941115617752075,-6.190415859222412,-2.150506019592285,-3.561353921890259,-11.985940933227539,0.2882111966609955
555,82819.0,2.9194071292877197,-5.973906517028809,-2.1086044311523438,-3.6172070503234863,-17.36968421936035,-0.4959185719490051
556,82829.0,2.8857274055480957,-5.616989612579346,-2.0935099124908447,-4.591180801391602,-21.873960494995117,3.171215295791626
557,82839.0,2.8470449447631836,-5.192747116088867,-2.0519728660583496,-1.9001452922821045,-26.44681739807129,6.4094438552856445
558,82849.0,2.704030752182007,-4.735558032989502,-2.101703405380249,0.3122927248477936,-32.3182373046875,7.815555572509766
559,82859.0,2.6867587566375732,-4.206226825714111,-2.023737907409668,-0.6056751012802124,-39.41777801513672,8.19592571258545
560,82869.0,3.2917425632476807,-3.5795342922210693,-1.3295152187347412,-3.0195491313934326,-45.89604187011719,9.955571174621582
561,82879.0,2.789604902267456,-4.71632194519043,-1.9782660007476807,-5.24921989440918,-49.10806655883789,9.57082462310791
562,82889.0,3.02473783493042,-4.103334903717041,-1.6340276002883911,-5.840268611907959,-48.157066345214844,6.370744228363037
563,82899.0,2.3386900424957275,-3.198378324508667,-2.0210156440734863,-6.259280204772949,-45.0406379699707,-0.09808758646249771
564,82909.0,2.466674327850342,-2.3822946548461914,-1.8058054447174072,-6.657758712768555,-42.865081787109375,-8.009148597717285
565,82919.0,2.4279329776763916,-2.0765113830566406,-1.8772263526916504,-7.981897830963135,-43.91415786743164,-11.175073623657227
566,82929.0,2.831986427307129,-0.921345591545105,-1.5693317651748657,-12.534258842468262,-48.194820404052734,-7.904757022857666
567,82939.0,2.2981626987457275,-0.22235077619552612,-1.8621572256088257,-16.81688690185547,-53.26078414916992,-1.5698903799057007
568,82949.0,1.9472179412841797,-1.3288772106170654,-2.2905964851379395,-25.16167640686035,-57.62168502807617,1.2353525161743164
569,82959.0,1.6402361392974854,-0.3011276423931122,-2.254208564758301,-30.9709415435791,-59.75006103515625,0.62489253282547
570,82969.0,0.8632602095603943,0.7007707357406616,-2.339402675628662,-28.36483383178711,-58.44285202026367,1.7203288078308105
571,82979.0,0.5736324191093445,1.6294230222702026,-2.2901501655578613,-21.283432006835938,-53.34090805053711,6.760553359985352
572,82989.0,0.3842572867870331,2.4215309619903564,-2.2196054458618164,-20.082292556762695,-46.42635726928711,13.89277458190918
573,82999.0,0.22784706950187683,3.05686092376709,-2.0964713096618652,-19.02831268310547,-40.128658294677734,15.524173736572266
574,83009.0,0.6327522397041321,4.090853214263916,-1.9950172901153564,-20.311838150024414,-36.51253890991211,7.177134990692139
575,83019.0,-0.16837257146835327,3.8915863037109375,-1.7602667808532715,-17.264663696289062,-34.47517395019531,-8.839361190795898
576,83029.0,0.15245360136032104,4.473215103149414,-1.9552536010742188,-6.648547172546387,-31.294151306152344,-23.97152328491211
577,83039.0,0.11265826970338821,4.746115684509277,-2.1605141162872314,1.2186449766159058,-26.952167510986328,-28.780426025390625
578,83049.0,0.54083251953125,4.771359443664551,-2.6191978454589844,5.480380058288574,-21.899633407592773,-22.935340881347656
579,83059.0,0.7162969708442688,4.93239164352417,-2.930433750152588,7.501008033752441,-17.605253219604492,-11.635095596313477
580,83069.0,0.2097647786140442,5.02564811706543,-2.723299264907837,6.150184631347656,-15.4203519821167,-1.5276615619659424
581,83079.0,0.870938241481781,5.077608585357666,-3.1383986473083496,4.090654373168945,-16.102035522460938,4.3883538246154785
582,83089.0,0.6422248482704163,5.748649597167969,-2.973329544067383,1.8886593580245972,-18.183244705200195,7.4197611808776855
583,83099.0,1.3057148456573486,5.787168025970459,-3.3730273246765137,-2.225259304046631,-18.750858306884766,5.6839118003845215
584,83109.0,1.2482942342758179,5.254059314727783,-3.2059037685394287,-1.993206262588501,-17.152477264404297,2.579251289367676
585,83119.0,1.2735005617141724,5.384790897369385,-3.210581064224243,1.1241865158081055,-12.53639030456543,-0.2313128262758255
586,83129.0,0.9794978499412537,5.454442024230957,-2.9554316997528076,1.2029320001602173,-7.640568733215332,0.10891647636890411
587,83139.0,1.295940637588501,5.428463459014893,-3.2021615505218506,2.9203298091888428,-4.857703685760498,4.695439338684082
588,83149.0,0.6692376136779785,5.390481948852539,-2.6094229221343994,3.9836065769195557,-4.06685733795166,9.482490539550781
589,83159.0,1.334966778755188,5.345534324645996,-3.0739355087280273,1.8572067022323608,-4.031757354736328,9.00711727142334
590,83169.0,1.4020739793777466,5.287664890289307,-3.0088133811950684,2.793675661087036,-3.3318169116973877,4.041872501373291
591,83179.0,1.3983080387115479,5.246205806732178,-2.9247536659240723,4.067708969116211,-1.365556240081787,-0.9996280074119568
592,83189.0,1.3460168838500977,5.388678550720215,-2.8475501537323,1.9024146795272827,1.2703611850738525,-2.5238659381866455
593,83199.0,1.4151270389556885,5.13344144821167,-2.8904707431793213,-0.9926481246948242,3.6216275691986084,-2.6878161430358887
594,83209.0,1.4286710023880005,5.129105567932129,-2.9221036434173584,-2.2923552989959717,5.2822771072387695,-2.258394956588745
595,83219.0,1.0600768327713013,4.765537738800049,-2.6333725452423096,-1.9051045179367065,6.640780448913574,-1.4400469064712524
596,83229.0,1.022579550743103,4.622573375701904,-2.628617763519287,-1.0268404483795166,8.232795715332031,-1.8889482021331787
597,83239.0,1.140665888786316,4.46337890625,-2.7449769973754883,-0.4862475097179413,10.592226028442383,-4.778514862060547
598,83249.0,0.8380365371704102,4.550425052642822,-2.548104763031006,0.03648766875267029,13.146679878234863,-5.950406074523926
599,83259.0,0.8684027194976807,4.297665596008301,-2.618499994277954,2.3362233638763428,15.074112892150879,-3.937553644180298
600,83269.0,1.2636818885803223,3.761197566986084,-2.926424741744995,-0.0073536960408091545,15.343308448791504,-5.025205135345459
601,83279.0,1.020054817199707,3.821261405944824,-2.787456512451172,-5.921505451202393,14.170395851135254,-10.361416816711426
602,83289.0,0.9283612966537476,3.5990829467773438,-2.8221991062164307,-10.01753044128418,13.777043342590332,-19.799179077148438
603,83299.0,0.6419289708137512,3.464686393737793,-2.84696102142334,-13.131876945495605,15.689924240112305,-31.332937240600586
604,83309.0,0.40449202060699463,3.2350969314575195,-3.0291149616241455,-18.702146530151367,20.76020622253418,-42.25156021118164
605,83319.0,0.12050015479326248,2.8063876628875732,-3.3205697536468506,-17.685218811035156,26.472482681274414,-49.402976989746094
606,83329.0,-0.06002478674054146,2.253523588180542,-3.7580313682556152,-10.190508842468262,32.026824951171875,-55.282711029052734
607,83339.0,-0.32744672894477844,1.8585025072097778,-4.203767776489258,0.2398378551006317,36.35548400878906,-56.13103103637695
608,83349.0,-0.20616544783115387,1.4130734205245972,-4.814674377441406,8.80541706085205,39.356204986572266,-47.80585861206055
609,83359.0,0.02368992194533348,0.9340918064117432,-5.37009859085083,8.21070671081543,40.70349884033203,-35.875606536865234
610,83369.0,0.23438048362731934,0.4488790035247803,-5.786722660064697,4.741792678833008,40.04349899291992,-25.25857925415039
611,83379.0,0.3567354381084442,0.5962045788764954,-6.150969505310059,3.172090530395508,36.90620422363281,-17.211034774780273
612,83389.0,0.4662667214870453,-0.47790271043777466,-6.259448528289795,7.6483330726623535,32.98374938964844,-4.148459434509277
613,83399.0,0.6092485785484314,-0.7837963700294495,-6.352559566497803,18.948015213012695,30.074087142944336,14.880818367004395
614,83409.0,0.8809991478919983,-0.5128237009048462,-6.331335544586182,26.837129592895508,30.39418601989746,29.11234474182129
615,83419.0,1.2786591053009033,-0.7783982157707214,-6.060678958892822,36.081520080566406,33.349586486816406,35.924259185791016
616,83429.0,1.7855037450790405,-1.1476668119430542,-5.689685344696045,41.65351104736328,36.32512664794922,41.514129638671875
617,83439.0,2.3582112789154053,-1.6127625703811646,-5.247832775115967,39.07529830932617,39.242652893066406,44.810035705566406
618,83449.0,2.75630784034729,-1.9729260206222534,-4.786464214324951,36.566795349121094,41.74083709716797,42.304622650146484
619,83459.0,2.654057741165161,-2.3832874298095703,-4.435914039611816,38.1087760925293,41.99064636230469,35.65340042114258
620,83469.0,3.116467237472534,-2.600602388381958,-4.00728178024292,40.25490951538086,41.25905227661133,32.82381820678711
621,83479.0,3.5267810821533203,-3.0980610847473145,-3.6513681411743164,33.270591735839844,41.66057586669922,26.271657943725586
622,83489.0,4.054183006286621,-3.584578275680542,-3.280151128768921,22.34571075439453,43.110015869140625,12.399515151977539
623,83499.0,4.200612545013428,-3.954812526702881,-3.120715379714966,19.53302001953125,44.566131591796875,-3.4134528636932373
624,83509.0,4.631622314453125,-4.547414302825928,-2.981990098953247,20.952207565307617,46.20051193237305,-11.010943412780762
625,83519.0,4.8900532722473145,-5.0772223472595215,-3.017764091491699,15.151047706604004,46.192039489746094,-9.7190580368042
626,83529.0,5.263987064361572,-5.585667610168457,-2.9608652591705322,6.533166408538818,43.6993408203125,-4.466133117675781
627,83539.0,5.261439800262451,-6.05644416809082,-3.0509278774261475,-2.961606740951538,38.341548919677734,0.5886255502700806
628,83549.0,5.273494720458984,-6.428061485290527,-2.9985251426696777,-3.305070161819458,34.42913818359375,0.6460968852043152
629,83559.0,5.472525596618652,-6.718352794647217,-2.740873336791992,-0.010252519510686398,33.68537902832031,-1.6345692873001099
630,83569.0,5.185900688171387,-7.024999618530273,-2.939612627029419,1.1256046295166016,35.40609359741211,-3.500013828277588
631,83579.0,5.241296291351318,-7.334342002868652,-2.8757681846618652,1.3825424909591675,36.59675216674805,-2.4512267112731934
632,83589.0,5.014632225036621,-7.673495292663574,-3.086292266845703,2.6737818717956543,34.999847412109375,-0.8437870144844055
633,83599.0,5.057695388793945,-7.975033283233643,-3.021578311920166,2.2615435123443604,30.962839126586914,-0.13586503267288208
634,83609.0,5.025290489196777,-8.216397285461426,-3.0187747478485107,1.033620834350586,26.767181396484375,1.0714389085769653
635,83619.0,4.599160671234131,-8.664496421813965,-3.543912649154663,-1.3301291465759277,23.613222122192383,3.4874298572540283
636,83629.0,4.450748443603516,-8.575329780578613,-3.515702724456787,-0.7172089219093323,21.855310440063477,6.510593414306641
637,83639.0,4.397850036621094,-8.62900447845459,-3.4272212982177734,2.3291096687316895,21.278648376464844,6.065545558929443
638,83649.0,5.193133354187012,-8.726634979248047,-2.390169382095337,4.1265106201171875,20.54776954650879,2.8018698692321777
639,83659.0,4.577907085418701,-9.193120956420898,-3.2292768955230713,1.8478151559829712,18.655988693237305,2.1980831623077393
640,83669.0,4.612857341766357,-8.961298942565918,-3.012122869491577,-3.179532051086426,15.90845775604248,3.3984193801879883
641,83679.0,5.0815863609313965,-8.998637199401855,-2.3237056732177734,-3.0186328887939453,12.181323051452637,3.016446590423584
642,83689.0,4.597249984741211,-9.093233108520508,-2.824141263961792,-0.9317497611045837,8.993659973144531,-1.1065205335617065
643,83699.0,4.476798057556152,-9.224787712097168,-2.953036069869995,-1.5481743812561035,6.872305393218994,-9.089146614074707
644,83709.0,3.9871373176574707,-9.411714553833008,-3.6359753608703613,-1.3968806266784668,4.948555946350098,-16.004798889160156
645,83719.0,4.477534770965576,-8.754817008972168,-2.837028741836548,0.877934992313385,2.914242744445801,-14.36923599243164
646,83729.0,3.447087287902832,-8.705470085144043,-4.219118118286133,3.544856548309326,-0.6770368814468384,-3.978494644165039
647,83739.0,3.6090214252471924,-8.766227722167969,-4.124200820922852,3.001307964324951,-6.301586151123047,9.622544288635254
648,83749.0,3.704500198364258,-8.535906791687012,-3.9329440593719482,0.3884724974632263,-11.481450080871582,14.892908096313477
649,83759.0,3.8362865447998047,-8.311538696289062,-3.63631534576416,-1.7891647815704346,-14.45681095123291,7.724842071533203
650,83769.0,3.989222526550293,-7.969029903411865,-3.2892038822174072,-0.34976357221603394,-14.811007499694824,-4.521378040313721
651,83779.0,4.048379421234131,-7.665488243103027,-3.175269365310669,0.8082518577575684,-14.614889144897461,-6.938283920288086
652,83789.0,4.387295722961426,-7.383607387542725,-2.8215014934539795,-0.011678503826260567,-14.814107894897461,0.5514454245567322
653,83799.0,4.100541114807129,-7.182584762573242,-3.1457302570343018,-2.0838496685028076,-15.968603134155273,9.599228858947754
654,83809.0,3.8978776931762695,-6.910119533538818,-3.262877941131592,-5.827027320861816,-17.892091751098633,11.455090522766113
655,83819.0,4.380920886993408,-6.962810516357422,-2.6818466186523438,-6.778594493865967,-19.409902572631836,5.072828769683838
656,83829.0,3.725938081741333,-6.2877631187438965,-3.0806081295013428,-4.674140930175781,-20.07854652404785,-5.155535697937012
657,83839.0,4.290260314941406,-6.008470058441162,-2.5005016326904297,-3.1301543712615967,-20.112024307250977,-9.730326652526855
658,83849.0,4.231332302093506,-5.749794006347656,-2.59484601020813,-4.110618591308594,-20.761789321899414,-6.198785305023193
659,83859.0,4.239712238311768,-6.519838333129883,-2.8737215995788574,-4.225040912628174,-22.19217872619629,4.0282392501831055
660,83869.0,4.172252178192139,-6.102694511413574,-2.8515400886535645,-4.646452903747559,-24.68374252319336,14.3385009765625
661,83879.0,4.182099342346191,-5.745532989501953,-2.692946195602417,-7.441518783569336,-25.76849365234375,14.862380027770996
662,83889.0,4.080200672149658,-5.317630767822266,-2.5542938709259033,-11.242709159851074,-25.0898380279541,5.106769561767578
663,83899.0,3.9274282455444336,-4.9303297996521,-2.492541551589966,-11.152253150939941,-22.776763916015625,-4.9348530769348145
664,83909.0,3.904710054397583,-4.74402379989624,-2.476201057434082,-12.17697525024414,-20.824068069458008,-7.314307689666748
665,83919.0,3.856438636779785,-4.524532318115234,-2.51133394241333,-11.4695405960083,-20.09766387939453,-3.667191982269287
666,83929.0,3.6699957847595215,-4.528502464294434,-2.6448910236358643,-11.198659896850586,-20.391422271728516,-0.9423547387123108
667,83939.0,3.5041863918304443,-4.366360664367676,-2.70314359664917,-9.270831108093262,-20.677658081054688,-1.4483742713928223
668,83949.0,3.1026744842529297,-3.992617607116699,-2.8294243812561035,-6.844891548156738,-21.182405471801758,-4.660684108734131
669,83959.0,3.2592151165008545,-3.8412764072418213,-2.7868752479553223,-5.279291152954102,-22.2629451751709,-7.175503730773926
670,83969.0,3.2091939449310303,-3.6005377769470215,-2.8531458377838135,-2.322946071624756,-23.45612907409668,-5.11005973815918
671,83979.0,3.06844162940979,-3.481060266494751,-2.9688844680786133,-0.10191456973552704,-24.1860294342041,1.135180950164795
672,83989.0,3.110232353210449,-3.1284868717193604,-2.9641969203948975,-1.8835132122039795,-24.821571350097656,6.583912372589111
673,83999.0,3.1280195713043213,-2.779327392578125,-2.908909320831299,-4.093801975250244,-26.377216339111328,7.621131896972656
674,84009.0,2.965982675552368,-2.422252655029297,-2.8595869541168213,-8.087800025939941,-27.87300682067871,2.979736328125
675,84019.0,2.9000918865203857,-2.0596024990081787,-2.8172528743743896,-8.562593460083008,-28.100618362426758,-6.518726348876953
676,84029.0,2.8169875144958496,-1.711708903312683,-2.857083559036255,-6.276888370513916,-27.4367618560791,-15.978342056274414
677,84039.0,2.75784969329834,-1.390985131263733,-2.9993345737457275,-4.905818462371826,-26.4309024810791,-16.98174285888672
678,84049.0,2.9217824935913086,-1.0975232124328613,-3.1911168098449707,-4.797913074493408,-25.553600311279297,-8.98136043548584
679,84059.0,2.649966239929199,-0.8259342312812805,-3.2977135181427,-4.8256049156188965,-25.979507446289062,3.335313558578491
680,84069.0,2.817807674407959,-2.354113817214966,-3.3325698375701904,-4.816982269287109,-27.92192840576172,13.674641609191895
681,84079.0,2.8754465579986572,-1.8662710189819336,-3.2481672763824463,-7.349122524261475,-29.936920166015625,16.583633422851562
682,84089.0,2.757114887237549,-1.5046439170837402,-3.087674379348755,-6.479536056518555,-31.402481079101562,10.839365005493164
683,84099.0,2.6587607860565186,-0.9974049925804138,-2.9701669216156006,-1.3400185108184814,-30.594694137573242,2.0926358699798584
684,84109.0,2.701970100402832,-0.46181076765060425,-2.959413766860962,1.557337999343872,-27.364397048950195,-5.435624122619629
685,84119.0,2.787947416305542,-0.012674402445554733,-3.0331740379333496,4.126687526702881,-22.54460906982422,-10.192307472229004
686,84129.0,2.696564197540283,0.12772460281848907,-3.0887207984924316,4.199369430541992,-18.319971084594727,-11.08987808227539
687,84139.0,2.966127872467041,0.5496071577072144,-3.298386573791504,2.6112821102142334,-16.100418090820312,-8.622320175170898
688,84149.0,2.977741003036499,0.7579492330551147,-3.395618438720703,4.950090408325195,-15.18129825592041,-2.4673657417297363
689,84159.0,2.6739935874938965,0.9398305416107178,-3.2979981899261475,8.664449691772461,-13.702482223510742,1.8450653553009033
690,84169.0,2.8786849975585938,1.0914416313171387,-3.355133533477783,6.259035110473633,-10.866959571838379,-0.7729665040969849
691,84179.0,3.175232410430908,1.2609509229660034,-3.471886396408081,0.9085177183151245,-7.889054775238037,-4.708535671234131
692,84189.0,2.749379873275757,1.3024388551712036,-3.263200044631958,2.1292691230773926,-4.4361252784729,-3.4331533908843994
693,84199.0,2.879145383834839,1.009858250617981,-3.357100009918213,4.081445217132568,-1.269811987876892,0.023481544107198715
694,84209.0,2.95408296585083,1.3244043588638306,-3.4078779220581055,3.6908257007598877,1.4867669343948364,3.475923776626587
695,84219.0,2.9529433250427246,1.0794470310211182,-3.348127841949463,0.7301065325737,1.4164931774139404,7.849946022033691
696,84229.0,2.7749416828155518,0.9998490214347839,-3.159816026687622,-2.9993960857391357,-0.8416169285774231,12.92631721496582
697,84239.0,2.7678165435791016,0.9687306880950928,-3.0526301860809326,-7.48879337310791,-3.536813735961914,17.771883010864258
698,84249.0,2.6910672187805176,0.9875439405441284,-2.8784773349761963,-7.57374906539917,-3.93585467338562,16.58050537109375
699,84259.0,2.817650318145752,0.9500982761383057,-2.833284378051758,-2.7908997535705566,-0.9807161688804626,10.899718284606934
700,84269.0,2.8425347805023193,0.9504886269569397,-2.7471389770507812,-1.2118643522262573,2.4136409759521484,7.645725727081299
701,84279.0,2.6198792457580566,0.8981893658638,-2.530113697052002,0.40375515818595886,5.033957481384277,6.878449440002441
702,84289.0,3.2163212299346924,0.9444864988327026,-2.834643840789795,4.333927154541016,5.60299015045166,8.32764720916748
703,84299.0,2.6863226890563965,0.8408095836639404,-2.4066522121429443,8.439682006835938,4.679498672485352,10.03904914855957
704,84309.0,3.1163861751556396,0.7544753551483154,-2.5245559215545654,7.381929874420166,3.7472715377807617,10.165606498718262
705,84319.0,2.9401564598083496,0.6939325332641602,-2.264033555984497,1.6496261358261108,3.6966323852539062,8.507266998291016
706,84329.0,3.0646770000457764,0.6360484957695007,-2.2220869064331055,1.095582127571106,5.1699934005737305,6.60443639755249
707,84339.0,3.1594488620758057,0.5575262904167175,-2.1966488361358643,5.021394729614258,8.094619750976562,4.138075351715088
708,84349.0,3.016340970993042,0.4396236836910248,-2.0394973754882812,6.5427093505859375,10.528812408447266,-0.08571936190128326
709,84359.0,3.1280651092529297,0.2879154682159424,-2.0450456142425537,5.881607532501221,10.863409042358398,-3.5493228435516357
710,84369.0,3.2944958209991455,0.13820885121822357,-2.1186721324920654,7.831837177276611,9.11653995513916,-0.9214973449707031
711,84379.0,3.537869453430176,0.020061295479536057,-2.2220137119293213,11.277298927307129,8.078570365905762,7.469243049621582
712,84389.0,3.6637768745422363,-0.07437478750944138,-2.1779181957244873,10.481917381286621,8.857461929321289,13.194189071655273
713,84399.0,3.7187726497650146,-0.17434261739253998,-2.0293872356414795,12.048052787780762,10.614398956298828,12.115884780883789
714,84409.0,3.800196647644043,-0.2314845770597458,-1.8788877725601196,14.974945068359375,12.128049850463867,6.506078243255615
715,84419.0,3.9351723194122314,-0.3884495198726654,-1.7880061864852905,21.024456024169922,12.91697883605957,0.36966943740844727
716,84429.0,4.234163284301758,-0.554274320602417,-1.7991688251495361,28.284727096557617,11.512866020202637,-4.409136772155762
717,84439.0,4.637563705444336,-0.6971895694732666,-1.8738157749176025,37.549625396728516,8.578903198242188,-5.924002647399902
718,84449.0,4.759894847869873,-0.5881257057189941,-1.834434151649475,46.481693267822266,5.64892578125,-2.195685625076294
719,84459.0,4.857327461242676,-0.4584652781486511,-1.7385616302490234,57.12718963623047,3.9106998443603516,2.2438368797302246
720,84469.0,5.7092814445495605,-0.39262208342552185,-1.8072333335876465,72.20545196533203,3.46039080619812,4.0321455001831055
721,84479.0,6.730815887451172,-0.4658360183238983,-1.8728636503219604,89.59100341796875,3.5962131023406982,2.6628823280334473
722,84489.0,7.079737663269043,-0.5288494229316711,-1.712282419204712,95.68704986572266,3.4955310821533203,2.488773822784424
723,84499.0,8.226170539855957,-0.5920411348342896,-1.7457728385925293,87.04217529296875,4.420831203460693,7.332983016967773
724,84509.0,8.859554290771484,-0.7197580933570862,-1.6500550508499146,74.75419616699219,5.669116020202637,6.2807464599609375
725,84519.0,10.066213607788086,-0.7873215675354004,-1.6704270839691162,61.97993850708008,5.9404683113098145,-3.49123215675354
726,84529.0,10.620124816894531,-1.0016950368881226,-1.6944726705551147,42.177093505859375,5.488846302032471,-14.372346878051758
727,84539.0,10.683365821838379,-0.6512745022773743,-1.4771056175231934,19.945293426513672,5.181755542755127,-17.420774459838867
728,84549.0,11.027627944946289,-0.7150366902351379,-1.6366305351257324,2.6748275756835938,5.156744480133057,-11.337343215942383
729,84559.0,11.077993392944336,-0.8455905914306641,-1.7962262630462646,-0.6501219868659973,4.715746879577637,-1.99730384349823
730,84569.0,11.231829643249512,-1.0186400413513184,-1.9515608549118042,1.2915472984313965,3.7069554328918457,4.364156723022461
731,84579.0,10.982521057128906,-0.8604722023010254,-1.7344017028808594,0.5486083626747131,2.505754232406616,8.276226043701172
732,84589.0,10.958595275878906,-0.9115517735481262,-1.6892772912979126,2.630155324935913,1.9432982206344604,14.77114200592041
733,84599.0,10.967058181762695,-1.0074394941329956,-1.6502074003219604,10.408860206604004,2.726400136947632,19.4401912689209
734,84609.0,11.079554557800293,-1.0196369886398315,-1.4963128566741943,18.770702362060547,4.579703330993652,18.627906799316406
735,84619.0,11.512911796569824,-1.0552618503570557,-1.361462116241455,15.412890434265137,5.498857498168945,12.078877449035645
736,84629.0,11.479186058044434,-1.1771605014801025,-1.277262806892395,-3.1596858501434326,4.283267974853516,-2.1607325077056885
737,84639.0,11.448431015014648,-1.2206814289093018,-1.2287330627441406,-13.174783706665039,1.6370989084243774,-10.290801048278809
738,84649.0,11.436012268066406,-1.09880793094635,-1.1512571573257446,-16.298599243164062,-0.4971521198749542,-12.569114685058594
739,84659.0,11.200997352600098,-1.1142761707305908,-1.255583643913269,-19.14263916015625,-0.11114488542079926,-11.908649444580078
740,84669.0,11.137728691101074,-1.2790013551712036,-1.5246682167053223,-22.951717376708984,1.40607488155365,-10.406147003173828
741,84679.0,10.727267265319824,-1.3013076782226562,-1.6140538454055786,-30.786231994628906,2.417541980743408,-7.453648567199707
742,84689.0,10.290205001831055,-1.3382093906402588,-1.6882264614105225,-42.08100891113281,2.6394379138946533,-3.3872265815734863
743,84699.0,9.710249900817871,-1.374255895614624,-1.7250378131866455,-47.711761474609375,2.01855206489563,-3.149895668029785
744,84709.0,9.674399375915527,-1.261973261833191,-1.6345634460449219,-49.07386779785156,1.4437780380249023,-5.60282039642334
745,84719.0,9.13916015625,-1.5791226625442505,-1.9383941888809204,-51.88306427001953,0.9230334162712097,-8.525464057922363
746,84729.0,8.296941757202148,-1.1608556509017944,-1.6308058500289917,-57.18696975708008,0.5105525255203247,-15.109675407409668
747,84739.0,7.697587013244629,-1.283182978630066,-1.837241768836975,-58.5242805480957,0.09135589003562927,-21.71539878845215
748,84749.0,7.3472700119018555,-1.1188373565673828,-1.8918790817260742,-58.23564529418945,-0.5241305828094482,-25.747587203979492
749,84759.0,6.765734672546387,-1.1820764541625977,-2.159102439880371,-55.4488639831543,-1.0438237190246582,-25.968008041381836
750,84769.0,5.8894362449646,-1.2355400323867798,-2.4387247562408447,-45.20105743408203,-1.3354735374450684,-17.727991104125977
751,84779.0,5.884856700897217,-1.4722295999526978,-2.7673394680023193,-33.60862350463867,-1.2634296417236328,-3.611609697341919
752,84789.0,5.633005142211914,-1.465272068977356,-2.847879409790039,-33.652591705322266,-2.472731828689575,6.186001777648926
753,84799.0,5.049333095550537,-1.4330955743789673,-2.8118398189544678,-40.8207893371582,-5.46603536605835,9.362032890319824
754,84809.0,4.608895778656006,-1.4230713844299316,-2.740762233734131,-45.39228057861328,-8.609868049621582,10.25064754486084
755,84819.0,4.436961650848389,-1.0187889337539673,-2.5651285648345947,-41.762508392333984,-12.71515941619873,15.236026763916016
756,84829.0,3.9969401359558105,-1.0638097524642944,-2.4673166275024414,-34.26089096069336,-16.03529167175293,27.273019790649414
757,84839.0,3.3912670612335205,-0.8250793814659119,-2.242417097091675,-39.81119918823242,-16.65789031982422,41.803775787353516
758,84849.0,2.832049608230591,-0.4435221254825592,-1.8714072704315186,-50.99277877807617,-15.608656883239746,47.544410705566406
759,84859.0,2.8756842613220215,-0.37936750054359436,-1.4227490425109863,-50.69681930541992,-13.669217109680176,42.133506774902344
760,84869.0,2.1504740715026855,-0.3303496837615967,-0.9569218158721924,-37.35353088378906,-8.645881652832031,21.065454483032227
761,84879.0,1.5169990062713623,-0.15555834770202637,-0.668730616569519,-22.561342239379883,-2.259328842163086,-7.833100318908691
762,84889.0,1.141856074333191,0.10676753520965576,-0.6970509886741638,-18.056812286376953,4.438202857971191,-27.780996322631836
763,84899.0,0.9460084438323975,-0.052645646035671234,-0.8686454892158508,-22.704984664916992,9.968645095825195,-34.90167236328125
764,84909.0,0.8413082957267761,-0.5614714026451111,-1.0342961549758911,-23.940343856811523,12.670153617858887,-34.69309997558594
765,84919.0,1.0322859287261963,-1.1231337785720825,-1.2238097190856934,-20.860811233520508,11.460025787353516,-25.152179718017578
766,84929.0,0.863420844078064,-1.4777193069458008,-1.39803946018219,-19.338298797607422,8.143535614013672,-12.059062004089355
767,84939.0,0.5013605356216431,-1.26089608669281,-1.7200437784194946,-23.44544219970703,4.813905715942383,-3.548588514328003
768,84949.0,0.18458326160907745,-1.1698228120803833,-1.8620140552520752,-22.81355094909668,2.265817880630493,1.7858490943908691
769,84959.0,-0.19057215750217438,-1.0548101663589478,-1.9447122812271118,-18.10005760192871,1.2041981220245361,4.447739601135254
770,84969.0,-0.3482668101787567,-1.0798689126968384,-1.8980048894882202,-21.92512321472168,2.0061564445495605,0.5742655396461487
771,84979.0,-0.6774401068687439,-1.114345669746399,-1.8503727912902832,-28.39058494567871,3.0600762367248535,-5.837996959686279
772,84989.0,-0.6099175214767456,-1.1606650352478027,-1.8747543096542358,-30.06381607055664,3.570061206817627,-10.992891311645508
773,84999.0,-0.9624283313751221,-0.9321689009666443,-2.158928394317627,-29.316028594970703,3.758671522140503,-19.642044067382812
774,85009.0,-1.4314428567886353,-1.0232030153274536,-2.261516809463501,-23.971736907958984,3.032970905303955,-29.23444366455078
775,85019.0,-1.6710418462753296,-1.019031286239624,-2.5403499603271484,-15.92423152923584,2.9271810054779053,-32.89900207519531
776,85029.0,-1.7966431379318237,-1.2229255437850952,-2.6998324394226074,-10.152708053588867,3.0618858337402344,-25.46433448791504
777,85039.0,-1.969155192375183,-1.1876180171966553,-3.0418617725372314,-10.173559188842773,2.5876760482788086,-9.291230201721191
778,85049.0,-2.1143064498901367,-1.2298314571380615,-3.188995122909546,-13.255823135375977,1.1235355138778687,12.666932106018066
779,85059.0,-2.292447805404663,-1.2557705640792847,-3.153810977935791,-15.410120964050293,-2.1891791820526123,38.54264450073242
780,85069.0,-2.3650929927825928,-1.2421165704727173,-2.8894236087799072,-14.594717979431152,-4.890853404998779,56.01826095581055
781,85079.0,-2.5056400299072266,-1.1956199407577515,-2.4176437854766846,3.013871669769287,-4.047305107116699,51.301082611083984
782,85089.0,-2.6275532245635986,-1.08710515499115,-1.9496413469314575,23.403423309326172,-0.7272060513496399,32.553653717041016
783,85099.0,-2.2204012870788574,-1.1059068441390991,-1.517115831375122,35.43873977661133,4.617502689361572,21.124902725219727
784,85109.0,-1.8311864137649536,-1.1893264055252075,-1.2122067213058472,44.180171966552734,11.58937931060791,23.546281814575195
785,85119.0,-1.3662991523742676,-1.3762638568878174,-0.8967843651771545,50.37123489379883,19.354949951171875,31.901615142822266
786,85129.0,-0.7324065566062927,-1.6758344173431396,-0.4750785231590271,54.8682746887207,25.698457717895508,35.5317268371582
787,85139.0,-0.17362308502197266,-1.9924341440200806,-0.04603324458003044,60.331817626953125,29.296422958374023,28.14688491821289
788,85149.0,0.6718288660049438,-2.4967260360717773,0.511266827583313,63.59016799926758,30.121807098388672,14.418652534484863
789,85159.0,0.9291154742240906,-2.8419742584228516,0.7218875885009766,57.50947952270508,27.98651123046875,-0.8737991452217102
790,85169.0,1.5731046199798584,-3.081794500350952,0.7347526550292969,46.81906509399414,21.763296127319336,-8.366681098937988
791,85179.0,2.1801085472106934,-3.2353079319000244,0.627655029296875,40.69990539550781,13.615398406982422,-6.140133380889893
792,85189.0,1.8535104990005493,-3.270167589187622,0.31282755732536316,40.5462760925293,4.577613353729248,1.8583564758300781
793,85199.0,2.5573856830596924,-3.2491869926452637,0.3133801221847534,41.701210021972656,-3.4205477237701416,10.03203296661377
794,85209.0,3.2404706478118896,-3.240321159362793,0.4586792588233948,53.60377502441406,-8.19458293914795,17.029338836669922
795,85219.0,3.3875906467437744,-2.8782551288604736,0.35927703976631165,65.81578063964844,-10.046568870544434,23.44476318359375
796,85229.0,4.101179122924805,-2.7155349254608154,0.56697016954422,64.3007583618164,-9.820775985717773,25.529556274414062
797,85239.0,5.0668792724609375,-2.2860727310180664,0.7748706936836243,46.479820251464844,-7.825460433959961,23.70867347717285
798,85249.0,5.213810443878174,-2.728780508041382,1.0668584108352661,29.946130752563477,-4.827080249786377,21.285694122314453
799,85259.0,5.4906134605407715,-2.6021265983581543,1.2500442266464233,26.697410583496094,-1.9292242527008057,18.934097290039062
800,85269.0,5.899538516998291,-2.4566164016723633,1.4668205976486206,35.410972595214844,-0.9652479887008667,20.02796745300293
801,85279.0,6.392862319946289,-2.4725425243377686,1.7039176225662231,39.197940826416016,-1.701725721359253,22.63164710998535
802,85289.0,6.386753559112549,-2.1307592391967773,1.8200281858444214,25.655805587768555,-3.270786762237549,17.849842071533203
803,85299.0,6.879089832305908,-2.0801124572753906,2.059941053390503,9.212709426879883,-4.559620380401611,7.514998912811279
804,85309.0,6.758905410766602,-2.016446352005005,2.104776382446289,7.7381272315979,-3.6277332305908203,1.057130217552185
805,85319.0,6.938260555267334,-2.0394506454467773,2.1337921619415283,8.910930633544922,-0.8975677490234375,-2.075751304626465
806,85329.0,7.122458457946777,-2.0340187549591064,2.135932683944702,4.784182548522949,2.1878304481506348,-6.452784061431885
807,85339.0,7.173562049865723,-1.9466614723205566,2.118034601211548,3.2692155838012695,4.331239700317383,-9.339558601379395
808,85349.0,7.260147571563721,-2.1202638149261475,2.0010807514190674,2.3727502822875977,4.280569076538086,-8.725801467895508
809,85359.0,7.323029518127441,-2.212590456008911,1.9066334962844849,-3.9776244163513184,3.161088705062866,-7.255104064941406
810,85369.0,7.297232151031494,-2.2807810306549072,1.8226988315582275,-3.4415500164031982,2.533661365509033,-6.311477184295654
811,85379.0,7.264204502105713,-2.2637763023376465,1.7843278646469116,2.9607937335968018,2.9213085174560547,-4.951766490936279
812,85389.0,7.318325996398926,-2.3930845260620117,1.6947791576385498,1.5666903257369995,3.4291434288024902,-3.2547576427459717
813,85399.0,7.3631415367126465,-2.4452013969421387,1.6564068794250488,-9.11355972290039,2.4598774909973145,-1.791366457939148
814,85409.0,7.320649147033691,-2.478593587875366,1.6373564004898071,-19.70603370666504,-0.027993226423859596,-0.9421138763427734
815,85419.0,7.042165279388428,-2.4046471118927,1.6497809886932373,-18.232528686523438,-1.5874511003494263,-2.2061009407043457
816,85429.0,6.773818492889404,-2.3870797157287598,1.6225001811981201,-12.269786834716797,0.8001336455345154,-7.53306245803833
817,85439.0,7.138117790222168,-2.406146287918091,1.6410789489746094,-12.277796745300293,6.260238170623779,-12.482954978942871
818,85449.0,6.902317047119141,-2.519681453704834,1.4861165285110474,-16.611093521118164,12.106245994567871,-14.460921287536621
819,85459.0,6.623271465301514,-2.7238757610321045,1.2928558588027954,-16.307796478271484,16.024402618408203,-15.158190727233887
820,85469.0,6.424427509307861,-2.9140360355377197,1.143349289894104,-11.101354598999023,17.05588150024414,-16.924808502197266
821,85479.0,6.231513977050781,-3.1235110759735107,0.9765439033508301,-8.385293960571289,16.314271926879883,-20.620920181274414
822,85489.0,6.098595142364502,-3.390502452850342,0.754234254360199,-6.599637985229492,14.876174926757812,-22.590951919555664
823,85499.0,5.9929609298706055,-3.4897241592407227,0.5773951411247253,-7.546630382537842,13.983746528625488,-20.518842697143555
824,85509.0,5.881894111633301,-3.7200798988342285,0.3424389362335205,-7.850594997406006,13.520520210266113,-16.91594886779785
825,85519.0,5.768547058105469,-3.930899143218994,0.1459021419286728,-5.548110008239746,14.424039840698242,-14.274128913879395
826,85529.0,5.759232044219971,-4.14047384262085,0.006370069459080696,1.1149775981903076,17.41580581665039,-12.137727737426758
827,85539.0,5.763266563415527,-4.383267879486084,-0.12119248509407043,3.780893087387085,21.603973388671875,-12.36841869354248
828,85549.0,5.816128730773926,-4.681732654571533,-0.2410442978143692,6.6782917976379395,26.29472541809082,-14.065535545349121
829,85559.0,5.910530090332031,-5.042119026184082,-0.36242926120758057,11.776504516601562,29.776153564453125,-16.22580337524414
830,85569.0,5.793814182281494,-4.643797397613525,-0.3569186329841614,9.692234992980957,30.907691955566406,-16.694761276245117
831,85579.0,6.029857635498047,-4.962411880493164,-0.4341391324996948,3.241962194442749,30.002344131469727,-14.233308792114258
832,85589.0,6.154140472412109,-5.403427600860596,-0.5508078336715698,-3.7807817459106445,29.804792404174805,-15.214966773986816
833,85599.0,5.894856929779053,-5.897555351257324,-0.821510910987854,-1.7775909900665283,32.615882873535156,-21.020023345947266
834,85609.0,5.882078170776367,-6.406295299530029,-1.002869963645935,3.0442028045654297,37.706905364990234,-26.922119140625
835,85619.0,5.932311058044434,-6.975894451141357,-1.2281581163406372,6.107769966125488,43.12393569946289,-25.172090530395508
836,85629.0,6.0261359214782715,-7.540176868438721,-1.4348738193511963,5.807071208953857,45.844905853271484,-13.534248352050781
837,85639.0,6.111468315124512,-6.2057390213012695,-1.1244531869888306,-2.686100721359253,44.42793273925781,-0.5045581459999084
838,85649.0,6.161505222320557,-6.732527732849121,-1.1071950197219849,-9.3803129196167,39.991580963134766,6.860633373260498
839,85659.0,6.025365829467773,-7.514187812805176,-1.1428438425064087,-14.554988861083984,35.99220657348633,7.315556526184082
840,85669.0,5.879232406616211,-8.174789428710938,-1.116654872894287,-15.884638786315918,34.56676483154297,8.518878936767578
841,85679.0,5.771783828735352,-8.764487266540527,-1.023961067199707,-9.04084587097168,35.43143081665039,15.006880760192871
842,85689.0,5.612200736999512,-9.32817268371582,-0.9605827331542969,-4.081084728240967,37.22993469238281,22.423458099365234
843,85699.0,5.855573654174805,-8.88046932220459,-0.34650903940200806,-4.785661220550537,38.50480270385742,19.779272079467773
844,85709.0,5.915687084197998,-9.621479988098145,-0.10042517632246017,-2.876129150390625,38.386024475097656,11.084699630737305
845,85719.0,5.840400218963623,-10.17750072479248,-0.008533604443073273,-0.08101938664913177,36.53228759765625,5.380725860595703
846,85729.0,5.736514568328857,-10.75647258758545,-0.04834793135523796,-3.454028606414795,33.92067337036133,6.555984973907471
847,85739.0,5.683945655822754,-11.196417808532715,-0.01933368109166622,-7.88240909576416,31.909421920776367,9.73021411895752
848,85749.0,5.574265003204346,-11.645129203796387,0.01682107336819172,-9.441038131713867,32.674530029296875,11.171028137207031
849,85759.0,5.523836135864258,-12.088191032409668,0.15383990108966827,-12.715004920959473,35.60995864868164,5.643379211425781
850,85769.0,5.349539756774902,-12.360612869262695,0.1868402063846588,-9.297736167907715,39.16250991821289,-5.903911590576172
851,85779.0,6.046360015869141,-11.69816780090332,1.323143482208252,-4.671277046203613,41.02438735961914,-15.52074146270752
852,85789.0,5.917222023010254,-12.158870697021484,1.1701983213424683,-6.099728584289551,40.598724365234375,-17.20431137084961
853,85799.0,5.698065757751465,-12.746262550354004,0.8451296091079712,-6.619372367858887,38.235557556152344,-8.8515625
854,85809.0,5.485316276550293,-13.386756896972656,0.5719949007034302,-7.602881908416748,35.35279083251953,-0.2539788782596588
855,85819.0,5.45257043838501,-13.949832916259766,0.6071456074714661,-9.681939125061035,33.483951568603516,1.083362340927124
856,85829.0,5.235410213470459,-14.445707321166992,0.451093465089798,-10.557218551635742,33.35077667236328,-1.37894606590271
857,85839.0,5.175629615783691,-14.90866756439209,0.524674117565155,-11.25877857208252,34.7702751159668,-6.266178131103516
858,85849.0,4.926673889160156,-15.361504554748535,0.3121882975101471,-12.426447868347168,37.015872955322266,-12.531988143920898
859,85859.0,4.667641639709473,-15.83818531036377,0.06384176760911942,-11.270008087158203,39.12163543701172,-17.51554298400879
860,85869.0,4.174041271209717,-16.64650535583496,-0.5890681743621826,-10.763452529907227,38.90676498413086,-14.299007415771484
861,85879.0,3.479475259780884,-17.319692611694336,-1.5715785026550293,-13.337315559387207,35.8062744140625,-5.341204643249512
862,85889.0,3.372795820236206,-17.4534969329834,-1.582558035850525,-12.551193237304688,32.03840637207031,-0.7524387836456299
863,85899.0,3.543062210083008,-17.691341400146484,-1.0936617851257324,-10.197402000427246,29.16269302368164,-2.0003139972686768
864,85909.0,3.54213285446167,-17.935192108154297,-0.9083885550498962,-10.763157844543457,29.001745223999023,-4.566658020019531
865,85919.0,3.1115007400512695,-18.412023544311523,-1.4353163242340088,-9.397183418273926,29.1806697845459,-4.983759880065918
866,85929.0,3.513914108276367,-18.45963478088379,-0.6244553923606873,-5.511143684387207,27.259300231933594,-4.142233371734619
867,85939.0,3.406872510910034,-18.673213958740234,-0.7066732048988342,-3.3177666664123535,23.053024291992188,-1.8052449226379395
868,85949.0,3.870584011077881,-19.020610809326172,0.19121311604976654,-3.8010988235473633,17.12153434753418,2.8473668098449707
869,85959.0,3.83685040473938,-19.05645751953125,0.18999753892421722,-5.065464973449707,11.237003326416016,9.918161392211914
870,85969.0,3.452286958694458,-18.883962631225586,-0.42148450016975403,-8.321481704711914,6.368619918823242,14.640995025634766
871,85979.0,3.4257194995880127,-18.583629608154297,-0.3319796323776245,-9.565054893493652,2.8899013996124268,14.322818756103516
872,85989.0,3.377962827682495,-18.474225997924805,-0.19795528054237366,-7.616013526916504,1.404056191444397,12.03567123413086
873,85999.0,3.2626678943634033,-18.22284698486328,-0.23434020578861237,-4.522975444793701,0.7580658197402954,8.719536781311035
874,86009.0,3.2789337635040283,-18.178592681884766,-0.06172441691160202,-6.332174777984619,-0.7935969233512878,4.518610000610352
875,86019.0,3.2524499893188477,-18.060243606567383,0.0015388107858598232,-7.062350749969482,-2.5508549213409424,-1.6807912588119507
876,86029.0,3.3537282943725586,-17.804195404052734,0.2679024338722229,-4.528743267059326,-2.4918863773345947,-6.059980869293213
877,86039.0,3.213251829147339,-17.91527557373047,0.1313508152961731,-2.167764902114868,-0.7660768628120422,-7.29852294921875
878,86049.0,3.121680736541748,-18.023923873901367,0.02741383947432041,1.2709664106369019,1.2968456745147705,-3.254899024963379
879,86059.0,3.2423055171966553,-17.89468002319336,0.17984993755817413,0.06685727089643478,2.3300185203552246,3.109356164932251
880,86069.0,3.5941274166107178,-18.0677490234375,0.801429271697998,-3.143630266189575,1.3026530742645264,8.235404968261719
881,86079.0,2.818549156188965,-17.9959659576416,-0.4187035858631134,-6.7112860679626465,-0.619121789932251,7.637058258056641
882,86089.0,3.2035446166992188,-17.661439895629883,0.27458304166793823,-4.990592956542969,-1.609054446220398,2.811819553375244
883,86099.0,3.4505045413970947,-17.346614837646484,0.7298542857170105,-3.1662261486053467,-1.787401556968689,1.0923058986663818
884,86109.0,2.682072877883911,-17.857646942138672,-0.2850024104118347,-5.013535976409912,-2.4561283588409424,3.6290714740753174
885,86119.0,3.3696229457855225,-17.249460220336914,0.7233195900917053,-2.907461404800415,-3.753063917160034,6.976492404937744
886,86129.0,3.314218521118164,-17.21103858947754,0.7400481104850769,-0.1306309998035431,-4.029691219329834,9.028752326965332
887,86139.0,3.167813539505005,-17.41855812072754,0.6507592797279358,-1.3937240839004517,-2.989088535308838,3.593585968017578
888,86149.0,3.102022886276245,-17.35687828063965,0.6064437627792358,0.16584007441997528,-1.7391409873962402,-6.89036750793457
889,86159.0,3.1193315982818604,-17.325227737426758,0.6266885995864868,4.027394771575928,-1.279874324798584,-11.506348609924316
890,86169.0,3.096026659011841,-17.305057525634766,0.4942435026168823,4.204091548919678,-2.36662220954895,-5.756669998168945
891,86179.0,3.1668577194213867,-17.25874900817871,0.4743330776691437,1.0995560884475708,-5.4905829429626465,7.272246837615967
892,86189.0,3.224571704864502,-17.441265106201172,0.5971215963363647,-0.04671169072389603,-8.937291145324707,17.89206886291504
893,86199.0,3.2713866233825684,-16.731212615966797,0.61556476354599,-1.565019965171814,-9.804308891296387,15.6717529296875
894,86209.0,3.310352087020874,-16.882490158081055,0.8521051406860352,-2.908520460128784,-8.516803741455078,4.812402725219727
895,86219.0,3.298652172088623,-16.756044387817383,0.9257223606109619,-0.5471375584602356,-6.7863335609436035,-3.1871745586395264
896,86229.0,3.575369358062744,-16.39567756652832,1.2183364629745483,0.19718725979328156,-5.917299270629883,-6.537402153015137
897,86239.0,3.309889554977417,-16.624500274658203,0.925412654876709,1.1419358253479004,-6.1315484046936035,-8.272868156433105
898,86249.0,3.303926944732666,-16.481355667114258,0.8420044779777527,3.689771890640259,-6.866592884063721,-7.2418928146362305
899,86259.0,3.476151466369629,-16.40352439880371,0.9467679858207703,3.267491340637207,-8.220006942749023,-2.5913479328155518
900,86269.0,3.2702038288116455,-16.372451782226562,0.6613155603408813,0.8624228835105896,-8.935624122619629,-0.3430910110473633
901,86279.0,3.585930585861206,-16.245847702026367,0.9683876037597656,2.7238807678222656,-7.229455947875977,-4.023685932159424
902,86289.0,3.366609811782837,-16.15998077392578,0.7075398564338684,4.875905513763428,-2.8241846561431885,-11.879681587219238
903,86299.0,2.9824352264404297,-16.213605880737305,0.2328776866197586,5.336962699890137,2.1082563400268555,-14.720534324645996
904,86309.0,3.718122959136963,-15.865139961242676,0.7241660356521606,4.314392566680908,4.087822914123535,-6.946698188781738
905,86319.0,3.7012059688568115,-16.00986099243164,0.6092599034309387,0.526051938533783,2.833399534225464,4.588820457458496
906,86329.0,3.0968241691589355,-16.725332260131836,0.16827799379825592,-4.368143558502197,-0.6024312376976013,11.311356544494629
907,86339.0,3.571270227432251,-16.156240463256836,0.6037684082984924,-6.712239742279053,-3.000715970993042,10.479921340942383
908,86349.0,3.5210318565368652,-16.078943252563477,0.6991406083106995,-6.428469181060791,-3.788820505142212,5.729923725128174
909,86359.0,3.3900809288024902,-16.057754516601562,0.7070357203483582,-7.982535362243652,-3.7948572635650635,3.4728214740753174
910,86369.0,3.2519984245300293,-16.229429244995117,0.7193166613578796,-5.556620121002197,-4.056839942932129,5.154498100280762
911,86379.0,3.0862812995910645,-16.563709259033203,0.7326328754425049,-3.4132955074310303,-4.192518711090088,5.840951919555664
912,86389.0,3.1240038871765137,-16.108274459838867,0.7803515195846558,-2.9690895080566406,-4.007164001464844,0.21479183435440063
913,86399.0,3.095705032348633,-16.050128936767578,0.804681658744812,1.0629216432571411,-3.633747100830078,-8.152658462524414
914,86409.0,3.104897975921631,-16.071117401123047,0.7838141322135925,4.25540828704834,-2.44553542137146,-13.706439018249512
915,86419.0,3.1358582973480225,-15.766794204711914,0.6364269852638245,2.455369234085083,-2.2672226428985596,-14.997010231018066
916,86429.0,3.1371653079986572,-15.84417724609375,0.5074803233146667,0.7745568156242371,-4.271273612976074,-10.227877616882324
917,86439.0,3.105562448501587,-15.87597942352295,0.38552483916282654,-3.2529942989349365,-7.744004249572754,-2.0063281059265137
918,86449.0,3.0268259048461914,-15.772045135498047,0.2952426075935364,-7.581050395965576,-12.254297256469727,4.995349884033203
919,86459.0,3.259032726287842,-15.462063789367676,0.4828741252422333,-4.125319480895996,-14.542722702026367,6.615994453430176
920,86469.0,3.0766782760620117,-15.345190048217773,0.46145379543304443,0.5068146586418152,-12.977904319763184,2.4976110458374023
921,86479.0,3.1196932792663574,-15.178930282592773,0.5214747786521912,1.6106815338134766,-9.738158226013184,-1.3607722520828247
922,86489.0,3.0390961170196533,-15.139145851135254,0.4736015498638153,4.130805015563965,-8.0977783203125,-4.119576930999756
923,86499.0,3.0748932361602783,-15.054070472717285,0.44743603467941284,6.210938453674316,-9.448740005493164,-7.513437271118164
924,86509.0,3.0012567043304443,-15.354455947875977,0.3817157745361328,6.319769382476807,-14.131623268127441,-9.64819049835205
925,86519.0,3.2119243144989014,-14.78325080871582,0.29758548736572266,4.989992141723633,-20.484243392944336,-8.869583129882812
926,86529.0,3.587576389312744,-14.504079818725586,0.34947237372398376,4.066326141357422,-25.9049129486084,-6.935359477996826
927,86539.0,3.6865270137786865,-14.013781547546387,0.25579535961151123,2.175055742263794,-27.89455223083496,-6.229704856872559
928,86549.0,3.6007633209228516,-13.727832794189453,0.1328827440738678,-2.8639252185821533,-27.00009536743164,-7.564724445343018
929,86559.0,3.444626569747925,-13.458783149719238,-0.0008437564829364419,-7.3073039054870605,-25.79878044128418,-7.125338077545166
930,86569.0,3.5002541542053223,-13.142780303955078,-0.05421680957078934,-10.971322059631348,-27.17888069152832,-2.305957794189453
931,86579.0,3.204164981842041,-12.893091201782227,-0.16208979487419128,-14.797430038452148,-31.398483276367188,4.232858180999756
932,86589.0,2.882538080215454,-12.509608268737793,-0.21078845858573914,-17.33594512939453,-36.67618942260742,8.675183296203613
933,86599.0,2.5564563274383545,-12.049983978271484,-0.1966875195503235,-15.749327659606934,-42.16083908081055,12.028121948242188
934,86609.0,2.3698036670684814,-13.281106948852539,0.12280818074941635,-14.520889282226562,-46.76585006713867,15.257501602172852
935,86619.0,2.48061466217041,-12.63668155670166,0.25294917821884155,-12.12442684173584,-50.52688217163086,16.2797908782959
936,86629.0,2.2047054767608643,-11.88548469543457,0.34184762835502625,-6.496677875518799,-53.4161376953125,15.386195182800293
937,86639.0,2.172499895095825,-10.983075141906738,0.41872870922088623,-2.889791965484619,-55.59912109375,16.156810760498047
938,86649.0,2.13342547416687,-10.085528373718262,0.4938109219074249,-1.0495154857635498,-58.37080764770508,15.774531364440918
939,86659.0,2.133140802383423,-11.022626876831055,0.9492331743240356,-0.13423684239387512,-61.35303497314453,11.975872993469238
940,86669.0,2.154186725616455,-10.142205238342285,1.0074687004089355,0.07068479806184769,-62.647071838378906,3.947131872177124
941,86679.0,1.9680992364883423,-8.99855899810791,0.9789221882820129,-0.7930478453636169,-60.59480285644531,-7.385785102844238
942,86689.0,2.210646629333496,-8.024884223937988,0.7699103355407715,2.0111138820648193,-56.26068878173828,-14.016188621520996
943,86699.0,2.3819479942321777,-6.8377790451049805,0.41402727365493774,4.884624004364014,-51.29673385620117,-10.780980110168457
944,86709.0,2.648772716522217,-6.302450180053711,0.1503959447145462,6.654425621032715,-47.147552490234375,0.9761786460876465
945,86719.0,2.1312639713287354,-5.101062774658203,0.2519090175628662,3.2740867137908936,-45.04993438720703,14.174880981445312
946,86729.0,2.8216452598571777,-4.789819240570068,-0.047001127153635025,0.4755089581012726,-45.2291145324707,20.954519271850586
947,86739.0,2.786029577255249,-4.601504802703857,0.2252737432718277,2.295060396194458,-47.05176544189453,19.93001937866211
948,86749.0,2.865037202835083,-3.5482065677642822,0.2501344382762909,1.8152145147323608,-48.92914581298828,15.515510559082031
949,86759.0,2.831611156463623,-3.480581283569336,0.535764217376709,-3.3867738246917725,-49.556941986083984,8.387191772460938
950,86769.0,2.819157123565674,-2.703805446624756,0.5611304640769958,-1.108149766921997,-47.380348205566406,2.930867910385132
